task_segments.thisRepN,task_segments.thisTrialN,task_segments.thisN,task_segments.thisIndex,task_segments.thisTrial,trials.thisRepN,trials.thisTrialN,trials.thisN,trials.thisIndex,trials.thisTrial,instructions_key.keys,instructions_key.rt,response,response_time,ISI,interval,time,block_number,trial_number,score,correct,p_short,v_short,c_short,v_long,c_long,response.keys,response.rt,date,frameRate,expName,session,participant,
,,,,,,,,,,space,3.00582313538,,,,,,,,,,,,,,,,,2016_Mar_16_1025,59.7885457783,switch_task,001,DMF,
0,0,0,0,None,0,0,0,0,None,,,left,0.985525131226,1.01067950416,2,5.49568200111,1,1,1,True,0.5,1,0,1,0,,,2016_Mar_16_1025,59.7885457783,switch_task,001,DMF,
0,0,0,0,None,0,0,0,0,None,,,,,,,,,,,,,,,,,['left'],[0.9855251312255859],2016_Mar_16_1025,59.7885457783,switch_task,001,DMF,
0,0,0,0,None,1,0,1,0,None,,,left,0.334930896759,1.39553063197,2,11.0611381531,1,2,1,False,0.5,1,0,1,0,,,2016_Mar_16_1025,59.7885457783,switch_task,001,DMF,
0,0,0,0,None,1,0,1,0,None,,,right,1.88827896118,1.39553063197,2,11.0611381531,1,2,1,False,0.5,1,0,1,0,,,2016_Mar_16_1025,59.7885457783,switch_task,001,DMF,
0,0,0,0,None,1,0,1,0,None,,,,,,,,,,,,,,,,,"['left', 'right']","[0.3349308967590332, 1.8882789611816406]",2016_Mar_16_1025,59.7885457783,switch_task,001,DMF,
0,0,0,0,None,2,0,2,0,None,,,left,1.02018690109,1.12038912958,2,16.951002121,1,3,2,True,0.5,1,0,1,0,,,2016_Mar_16_1025,59.7885457783,switch_task,001,DMF,
0,0,0,0,None,2,0,2,0,None,,,,,,,,,,,,,,,,,['left'],[1.0201869010925293],2016_Mar_16_1025,59.7885457783,switch_task,001,DMF,
0,0,0,0,None,3,0,3,0,None,,,left,0.436483860016,0.829757148522,2,22.5714921951,1,4,3,True,0.5,1,0,1,0,,,2016_Mar_16_1025,59.7885457783,switch_task,001,DMF,
0,0,0,0,None,3,0,3,0,None,,,,,,,,,,,,,,,,,['left'],[0.43648386001586914],2016_Mar_16_1025,59.7885457783,switch_task,001,DMF,
0,0,0,0,None,4,0,4,0,None,,,left,0.385190963745,0.987862730452,3,27.9217200279,1,5,4,True,0.5,1,0,1,0,,,2016_Mar_16_1025,59.7885457783,switch_task,001,DMF,
0,0,0,0,None,4,0,4,0,None,,,right,2.63998603821,0.987862730452,3,27.9217200279,1,5,4,True,0.5,1,0,1,0,,,2016_Mar_16_1025,59.7885457783,switch_task,001,DMF,
0,0,0,0,None,4,0,4,0,None,,,,,,,,,,,,,,,,,"['left', 'right']","[0.3851909637451172, 2.639986038208008]",2016_Mar_16_1025,59.7885457783,switch_task,001,DMF,
0,0,0,0,None,5,0,5,0,None,,,left,0.502454996109,0.75735292903,3,34.399214983,1,6,5,True,0.5,1,0,1,0,,,2016_Mar_16_1025,59.7885457783,switch_task,001,DMF,
0,0,0,0,None,5,0,5,0,None,,,right,2.70897388458,0.75735292903,3,34.399214983,1,6,5,True,0.5,1,0,1,0,,,2016_Mar_16_1025,59.7885457783,switch_task,001,DMF,
0,0,0,0,None,5,0,5,0,None,,,,,,,,,,,,,,,,,"['left', 'right']","[0.5024549961090088, 2.7089738845825195]",2016_Mar_16_1025,59.7885457783,switch_task,001,DMF,
0,0,0,0,None,6,0,6,0,None,,,left,0.618990182877,1.11931668366,3,40.6138670444,1,7,6,True,0.5,1,0,1,0,,,2016_Mar_16_1025,59.7885457783,switch_task,001,DMF,
0,0,0,0,None,6,0,6,0,None,,,right,2.82525110245,1.11931668366,3,40.6138670444,1,7,6,True,0.5,1,0,1,0,,,2016_Mar_16_1025,59.7885457783,switch_task,001,DMF,
0,0,0,0,None,6,0,6,0,None,,,,,,,,,,,,,,,,,"['left', 'right']","[0.6189901828765869, 2.8252511024475098]",2016_Mar_16_1025,59.7885457783,switch_task,001,DMF,
0,0,0,0,None,7,0,7,0,None,,,left,0.418514966965,1.28349010364,3,47.2413980961,1,8,6,True,0.5,1,0,1,0,,,2016_Mar_16_1025,59.7885457783,switch_task,001,DMF,
0,0,0,0,None,7,0,7,0,None,,,,,,,,,,,,,,,,,['left'],[0.4185149669647217],2016_Mar_16_1025,59.7885457783,switch_task,001,DMF,
0,0,0,0,None,8,0,8,0,None,,,left,0.602338790894,1.03760862727,3,53.9888811111,1,9,6,True,0.5,1,0,1,0,,,2016_Mar_16_1025,59.7885457783,switch_task,001,DMF,
0,0,0,0,None,8,0,8,0,None,,,,,,,,,,,,,,,,,['left'],[0.6023387908935547],2016_Mar_16_1025,59.7885457783,switch_task,001,DMF,
0,0,0,0,None,9,0,9,0,None,,,left,0.636077880859,0.700445393981,3,60.4789659977,1,10,6,True,0.5,1,0,1,0,,,2016_Mar_16_1025,59.7885457783,switch_task,001,DMF,
0,0,0,0,None,9,0,9,0,None,,,,,,,,,,,,,,,,,['left'],[0.636077880859375],2016_Mar_16_1025,59.7885457783,switch_task,001,DMF,
0,0,0,0,None,10,0,10,0,None,,,left,0.502232074738,1.09819966478,3,66.6496591568,1,11,7,True,0.5,1,0,1,0,,,2016_Mar_16_1025,59.7885457783,switch_task,001,DMF,
0,0,0,0,None,10,0,10,0,None,,,right,1.43694806099,1.09819966478,3,66.6496591568,1,11,7,True,0.5,1,0,1,0,,,2016_Mar_16_1025,59.7885457783,switch_task,001,DMF,
0,0,0,0,None,10,0,10,0,None,,,,,,,,,,,,,,,,,"['left', 'right']","[0.5022320747375488, 1.4369480609893799]",2016_Mar_16_1025,59.7885457783,switch_task,001,DMF,
0,0,0,0,None,11,0,11,0,None,,,left,0.518294095993,1.14016702488,3,73.2029790878,1,12,8,True,0.5,1,0,1,0,,,2016_Mar_16_1025,59.7885457783,switch_task,001,DMF,
0,0,0,0,None,11,0,11,0,None,,,right,2.30558395386,1.14016702488,3,73.2029790878,1,12,8,True,0.5,1,0,1,0,,,2016_Mar_16_1025,59.7885457783,switch_task,001,DMF,
0,0,0,0,None,11,0,11,0,None,,,,,,,,,,,,,,,,,"['left', 'right']","[0.518294095993042, 2.305583953857422]",2016_Mar_16_1025,59.7885457783,switch_task,001,DMF,
0,0,0,0,None,12,0,12,0,None,,,left,1.23848390579,0.852330277452,3,79.8281471729,1,13,8,True,0.5,1,0,1,0,,,2016_Mar_16_1025,59.7885457783,switch_task,001,DMF,
0,0,0,0,None,12,0,12,0,None,,,,,,,,,,,,,,,,,['left'],[1.2384839057922363],2016_Mar_16_1025,59.7885457783,switch_task,001,DMF,
0,0,0,0,None,13,0,13,0,None,,,left,0.536695957184,1.42952498652,2,86.1562411785,1,14,9,True,0.5,1,0,1,0,,,2016_Mar_16_1025,59.7885457783,switch_task,001,DMF,
0,0,0,0,None,13,0,13,0,None,,,,,,,,,,,,,,,,,['left'],[0.5366959571838379],2016_Mar_16_1025,59.7885457783,switch_task,001,DMF,
0,0,0,0,None,14,0,14,0,None,,,left,0.401953935623,1.2364281645,3,92.0192680359,1,15,10,True,0.5,1,0,1,0,,,2016_Mar_16_1025,59.7885457783,switch_task,001,DMF,
0,0,0,0,None,14,0,14,0,None,,,right,2.25668406487,1.2364281645,3,92.0192680359,1,15,10,True,0.5,1,0,1,0,,,2016_Mar_16_1025,59.7885457783,switch_task,001,DMF,
0,0,0,0,None,14,0,14,0,None,,,,,,,,,,,,,,,,,"['left', 'right']","[0.40195393562316895, 2.2566840648651123]",2016_Mar_16_1025,59.7885457783,switch_task,001,DMF,
0,0,0,0,None,15,0,15,0,None,,,left,0.635406017303,0.656198134945,3,98.7020430565,1,16,11,True,0.5,1,0,1,0,,,2016_Mar_16_1025,59.7885457783,switch_task,001,DMF,
0,0,0,0,None,15,0,15,0,None,,,right,2.87222504616,0.656198134945,3,98.7020430565,1,16,11,True,0.5,1,0,1,0,,,2016_Mar_16_1025,59.7885457783,switch_task,001,DMF,
0,0,0,0,None,15,0,15,0,None,,,,,,,,,,,,,,,,,"['left', 'right']","[0.6354060173034668, 2.872225046157837]",2016_Mar_16_1025,59.7885457783,switch_task,001,DMF,
0,0,0,0,None,16,0,16,0,None,,,left,0.368484973907,1.20917037554,2,104.796480179,1,17,12,True,0.5,1,0,1,0,,,2016_Mar_16_1025,59.7885457783,switch_task,001,DMF,
0,0,0,0,None,16,0,16,0,None,,,,,,,,,,,,,,,,,['left'],[0.3684849739074707],2016_Mar_16_1025,59.7885457783,switch_task,001,DMF,
0,0,0,0,None,17,0,17,0,None,,,left,0.470193862915,0.960612759728,3,110.467789173,1,18,13,True,0.5,1,0,1,0,,,2016_Mar_16_1025,59.7885457783,switch_task,001,DMF,
0,0,0,0,None,17,0,17,0,None,,,right,2.69048905373,0.960612759728,3,110.467789173,1,18,13,True,0.5,1,0,1,0,,,2016_Mar_16_1025,59.7885457783,switch_task,001,DMF,
0,0,0,0,None,17,0,17,0,None,,,,,,,,,,,,,,,,,"['left', 'right']","[0.47019386291503906, 2.6904890537261963]",2016_Mar_16_1025,59.7885457783,switch_task,001,DMF,
0,0,0,0,None,18,0,18,0,None,,,left,0.585886955261,1.03371333594,2,117.016740084,1,19,14,True,0.5,1,0,1,0,,,2016_Mar_16_1025,59.7885457783,switch_task,001,DMF,
0,0,0,0,None,18,0,18,0,None,,,,,,,,,,,,,,,,,['left'],[0.5858869552612305],2016_Mar_16_1025,59.7885457783,switch_task,001,DMF,
0,0,0,0,None,19,0,19,0,None,,,left,0.286514997482,1.34627450458,3,122.526441097,1,20,15,True,0.5,1,0,1,0,,,2016_Mar_16_1025,59.7885457783,switch_task,001,DMF,
0,0,0,0,None,19,0,19,0,None,,,right,2.50793385506,1.34627450458,3,122.526441097,1,20,15,True,0.5,1,0,1,0,,,2016_Mar_16_1025,59.7885457783,switch_task,001,DMF,
0,0,0,0,None,19,0,19,0,None,,,,,,,,,,,,,,,,,"['left', 'right']","[0.2865149974822998, 2.5079338550567627]",2016_Mar_16_1025,59.7885457783,switch_task,001,DMF,
0,0,0,0,None,20,0,20,0,None,,,left,0.486611843109,1.20903530478,3,129.335386038,1,21,16,True,0.5,1,0,1,0,,,2016_Mar_16_1025,59.7885457783,switch_task,001,DMF,
0,0,0,0,None,20,0,20,0,None,,,right,2.44087100029,1.20903530478,3,129.335386038,1,21,16,True,0.5,1,0,1,0,,,2016_Mar_16_1025,59.7885457783,switch_task,001,DMF,
0,0,0,0,None,20,0,20,0,None,,,,,,,,,,,,,,,,,"['left', 'right']","[0.48661184310913086, 2.440871000289917]",2016_Mar_16_1025,59.7885457783,switch_task,001,DMF,
0,0,0,0,None,21,0,21,0,None,,,left,0.786498069763,0.817047912498,2,136.004181147,1,22,17,True,0.5,1,0,1,0,,,2016_Mar_16_1025,59.7885457783,switch_task,001,DMF,
0,0,0,0,None,21,0,21,0,None,,,,,,,,,,,,,,,,,['left'],[0.7864980697631836],2016_Mar_16_1025,59.7885457783,switch_task,001,DMF,
0,0,0,0,None,22,0,22,0,None,,,left,1.53790020943,0.684181130922,3,141.305543184,1,23,18,True,0.5,1,0,1,0,,,2016_Mar_16_1025,59.7885457783,switch_task,001,DMF,
0,0,0,0,None,22,0,22,0,None,,,right,2.94027805328,0.684181130922,3,141.305543184,1,23,18,True,0.5,1,0,1,0,,,2016_Mar_16_1025,59.7885457783,switch_task,001,DMF,
0,0,0,0,None,22,0,22,0,None,,,,,,,,,,,,,,,,,"['left', 'right']","[1.5379002094268799, 2.9402780532836914]",2016_Mar_16_1025,59.7885457783,switch_task,001,DMF,
0,0,0,0,None,23,0,23,0,None,,,left,0.701694011688,1.12384083849,2,147.476828098,1,24,19,True,0.5,1,0,1,0,,,2016_Mar_16_1025,59.7885457783,switch_task,001,DMF,
0,0,0,0,None,23,0,23,0,None,,,,,,,,,,,,,,,,,['left'],[0.7016940116882324],2016_Mar_16_1025,59.7885457783,switch_task,001,DMF,
0,0,0,0,None,24,0,24,0,None,,,left,0.80439209938,0.534809616677,3,153.012215137,1,25,19,True,0.5,1,0,1,0,,,2016_Mar_16_1025,59.7885457783,switch_task,001,DMF,
0,0,0,0,None,24,0,24,0,None,,,,,,,,,,,,,,,,,['left'],[0.8043920993804932],2016_Mar_16_1025,59.7885457783,switch_task,001,DMF,
0,0,0,0,None,25,0,25,0,None,,,left,0.753544092178,0.721274209893,3,158.971181154,1,26,20,True,0.5,1,0,1,0,,,2016_Mar_16_1025,59.7885457783,switch_task,001,DMF,
0,0,0,0,None,25,0,25,0,None,,,right,1.60323596001,0.721274209893,3,158.971181154,1,26,20,True,0.5,1,0,1,0,,,2016_Mar_16_1025,59.7885457783,switch_task,001,DMF,
0,0,0,0,None,25,0,25,0,None,,,,,,,,,,,,,,,,,"['left', 'right']","[0.7535440921783447, 1.6032359600067139]",2016_Mar_16_1025,59.7885457783,switch_task,001,DMF,
0,0,0,0,None,26,0,26,0,None,,,left,0.435474872589,1.04810863721,3,165.167948008,1,27,21,True,0.5,1,0,1,0,,,2016_Mar_16_1025,59.7885457783,switch_task,001,DMF,
0,0,0,0,None,26,0,26,0,None,,,right,2.33951807022,1.04810863721,3,165.167948008,1,27,21,True,0.5,1,0,1,0,,,2016_Mar_16_1025,59.7885457783,switch_task,001,DMF,
0,0,0,0,None,26,0,26,0,None,,,,,,,,,,,,,,,,,"['left', 'right']","[0.43547487258911133, 2.3395180702209473]",2016_Mar_16_1025,59.7885457783,switch_task,001,DMF,
0,0,0,0,None,27,0,27,0,None,,,left,0.350893974304,1.11063030998,3,171.676892042,1,28,22,True,0.5,1,0,1,0,,,2016_Mar_16_1025,59.7885457783,switch_task,001,DMF,
0,0,0,0,None,27,0,27,0,None,,,right,2.48872494698,1.11063030998,3,171.676892042,1,28,22,True,0.5,1,0,1,0,,,2016_Mar_16_1025,59.7885457783,switch_task,001,DMF,
0,0,0,0,None,27,0,27,0,None,,,,,,,,,,,,,,,,,"['left', 'right']","[0.3508939743041992, 2.488724946975708]",2016_Mar_16_1025,59.7885457783,switch_task,001,DMF,
0,0,0,0,None,28,0,28,0,None,,,left,0.852075099945,0.890933626923,3,178.23000598,1,29,23,True,0.5,1,0,1,0,,,2016_Mar_16_1025,59.7885457783,switch_task,001,DMF,
0,0,0,0,None,28,0,28,0,None,,,right,2.67394208908,0.890933626923,3,178.23000598,1,29,23,True,0.5,1,0,1,0,,,2016_Mar_16_1025,59.7885457783,switch_task,001,DMF,
0,0,0,0,None,28,0,28,0,None,,,,,,,,,,,,,,,,,"['left', 'right']","[0.8520750999450684, 2.6739420890808105]",2016_Mar_16_1025,59.7885457783,switch_task,001,DMF,
0,0,0,0,None,29,0,29,0,None,,,left,0.418556928635,0.645501727435,3,184.667083979,1,30,23,True,0.5,1,0,1,0,,,2016_Mar_16_1025,59.7885457783,switch_task,001,DMF,
0,0,0,0,None,29,0,29,0,None,,,,,,,,,,,,,,,,,['left'],[0.41855692863464355],2016_Mar_16_1025,59.7885457783,switch_task,001,DMF,
0,0,0,0,None,30,0,30,0,None,,,left,0.469926118851,1.48694228552,2,190.763357162,1,31,24,True,0.5,1,0,1,0,,,2016_Mar_16_1025,59.7885457783,switch_task,001,DMF,
0,0,0,0,None,30,0,30,0,None,,,,,,,,,,,,,,,,,['left'],[0.469926118850708],2016_Mar_16_1025,59.7885457783,switch_task,001,DMF,
0,0,0,0,None,31,0,31,0,None,,,left,0.968837976456,0.947893465605,3,196.698922157,1,32,24,True,0.5,1,0,1,0,,,2016_Mar_16_1025,59.7885457783,switch_task,001,DMF,
0,0,0,0,None,31,0,31,0,None,,,,,,,,,,,,,,,,,['left'],[0.9688379764556885],2016_Mar_16_1025,59.7885457783,switch_task,001,DMF,
0,0,0,0,None,32,0,32,0,None,,,left,0.300728082657,0.657105809463,2,203.091118097,1,33,25,True,0.5,1,0,1,0,,,2016_Mar_16_1025,59.7885457783,switch_task,001,DMF,
0,0,0,0,None,32,0,32,0,None,,,,,,,,,,,,,,,,,['left'],[0.30072808265686035],2016_Mar_16_1025,59.7885457783,switch_task,001,DMF,
0,0,0,0,None,33,0,33,0,None,,,left,0.97098493576,0.532828851542,3,208.243332148,1,34,25,True,0.5,1,0,1,0,,,2016_Mar_16_1025,59.7885457783,switch_task,001,DMF,
0,0,0,0,None,33,0,33,0,None,,,,,,,,,,,,,,,,,['left'],[0.970984935760498],2016_Mar_16_1025,59.7885457783,switch_task,001,DMF,
0,0,0,0,None,34,0,34,0,None,,,left,0.285295963287,1.08943595321,2,214.250808001,1,35,26,True,0.5,1,0,1,0,,,2016_Mar_16_1025,59.7885457783,switch_task,001,DMF,
0,0,0,0,None,34,0,34,0,None,,,,,,,,,,,,,,,,,['left'],[0.2852959632873535],2016_Mar_16_1025,59.7885457783,switch_task,001,DMF,
0,0,0,0,None,35,0,35,0,None,,,left,0.484959840775,0.979387674802,2,219.809165001,1,36,27,True,0.5,1,0,1,0,,,2016_Mar_16_1025,59.7885457783,switch_task,001,DMF,
0,0,0,0,None,35,0,35,0,None,,,,,,,,,,,,,,,,,['left'],[0.48495984077453613],2016_Mar_16_1025,59.7885457783,switch_task,001,DMF,
0,0,0,0,None,36,0,36,0,None,,,left,0.351522922516,1.3163565162,2,225.241684198,1,37,28,True,0.5,1,0,1,0,,,2016_Mar_16_1025,59.7885457783,switch_task,001,DMF,
0,0,0,0,None,36,0,36,0,None,,,,,,,,,,,,,,,,,['left'],[0.35152292251586914],2016_Mar_16_1025,59.7885457783,switch_task,001,DMF,
0,0,0,0,None,37,0,37,0,None,,,left,0.453616857529,0.746132727391,3,231.011747122,1,38,28,True,0.5,1,0,1,0,,,2016_Mar_16_1025,59.7885457783,switch_task,001,DMF,
0,0,0,0,None,37,0,37,0,None,,,,,,,,,,,,,,,,,['left'],[0.4536168575286865],2016_Mar_16_1025,59.7885457783,switch_task,001,DMF,
0,0,0,0,None,38,0,38,0,None,,,left,0.353060007095,0.952223153749,3,237.234644175,1,39,29,True,0.5,1,0,1,0,,,2016_Mar_16_1025,59.7885457783,switch_task,001,DMF,
0,0,0,0,None,38,0,38,0,None,,,right,2.69175100327,0.952223153749,3,237.234644175,1,39,29,True,0.5,1,0,1,0,,,2016_Mar_16_1025,59.7885457783,switch_task,001,DMF,
0,0,0,0,None,38,0,38,0,None,,,,,,,,,,,,,,,,,"['left', 'right']","[0.3530600070953369, 2.691751003265381]",2016_Mar_16_1025,59.7885457783,switch_task,001,DMF,
0,0,0,0,None,39,0,39,0,None,,,left,0.453640937805,0.551653135482,3,243.613752127,1,40,30,True,0.5,1,0,1,0,,,2016_Mar_16_1025,59.7885457783,switch_task,001,DMF,
0,0,0,0,None,39,0,39,0,None,,,right,2.69135189056,0.551653135482,3,243.613752127,1,40,30,True,0.5,1,0,1,0,,,2016_Mar_16_1025,59.7885457783,switch_task,001,DMF,
0,0,0,0,None,39,0,39,0,None,,,,,,,,,,,,,,,,,"['left', 'right']","[0.4536409378051758, 2.691351890563965]",2016_Mar_16_1025,59.7885457783,switch_task,001,DMF,
