experiment.thisRepN,experiment.thisTrialN,experiment.thisN,experiment.thisIndex,instructions_key.keys,instructions_key.rt,rt,score,response_number,block_number,time,interval,response.keys,response.rt,break_key.keys,break_key.rt,closing_key.keys,closing_key.rt,date,frameRate,expName,session,participant,
,,,,space,7.29423093796,,,,,,,,,,,,,2017_Jul_05_1445,59.8605638245,DRL_task,1,100,
0,0,0,0,,,2.6779820919,0,1,1,11.1668131351,5,,,,,,,2017_Jul_05_1445,59.8605638245,DRL_task,1,100,
0,0,0,0,,,4.47263097763,0,2,1,15.6381220818,5,,,,,,,2017_Jul_05_1445,59.8605638245,DRL_task,1,100,
0,0,0,0,,,4.37151002884,0,3,1,20.0095369816,5,,,,,,,2017_Jul_05_1445,59.8605638245,DRL_task,1,100,
0,0,0,0,,,11.3785250187,1,4,1,31.3881480694,5,,,,,,,2017_Jul_05_1445,59.8605638245,DRL_task,1,100,
0,0,0,0,,,15.6501288414,2,5,1,47.0380270481,5,,,,,,,2017_Jul_05_1445,59.8605638245,DRL_task,1,100,
0,0,0,0,,,2.43573021889,2,6,1,49.4738349915,5,,,,,,,2017_Jul_05_1445,59.8605638245,DRL_task,1,100,
0,0,0,0,,,2.56916880608,2,7,1,52.0431771278,5,,,,,,,2017_Jul_05_1445,59.8605638245,DRL_task,1,100,
0,0,0,0,,,2.30253601074,2,8,1,54.3456561565,5,,,,,,,2017_Jul_05_1445,59.8605638245,DRL_task,1,100,
0,0,0,0,,,3.95296502113,2,9,1,58.2995131016,5,,,,,,,2017_Jul_05_1445,59.8605638245,DRL_task,1,100,
0,0,0,0,,,3.30481505394,2,10,1,61.6031291485,5,,,,,,,2017_Jul_05_1445,59.8605638245,DRL_task,1,100,
0,0,0,0,,,1.80181503296,2,11,1,63.4048771858,5,,,,,,,2017_Jul_05_1445,59.8605638245,DRL_task,1,100,
0,0,0,0,,,2.83659386635,2,12,1,66.2413351536,5,,,,,,,2017_Jul_05_1445,59.8605638245,DRL_task,1,100,
0,0,0,0,,,3.06978011131,2,13,1,69.3112421036,5,,,,,,,2017_Jul_05_1445,59.8605638245,DRL_task,1,100,
0,0,0,0,,,3.23536109924,2,14,1,72.5480051041,5,,,,,,,2017_Jul_05_1445,59.8605638245,DRL_task,1,100,
0,0,0,0,,,5.30711388588,3,15,1,77.8536951542,5,,,,,,,2017_Jul_05_1445,59.8605638245,DRL_task,1,100,
0,0,0,0,,,5.52231097221,4,16,1,83.3762331009,5,,,,,,,2017_Jul_05_1445,59.8605638245,DRL_task,1,100,
0,0,0,0,,,4.1372179985,4,17,1,87.513928175,5,,,,,,,2017_Jul_05_1445,59.8605638245,DRL_task,1,100,
0,0,0,0,,,4.03811693192,4,18,1,91.5515880585,5,,,,,,,2017_Jul_05_1445,59.8605638245,DRL_task,1,100,
0,0,0,0,,,4.82160305977,4,19,1,96.3731510639,5,,,,,,,2017_Jul_05_1445,59.8605638245,DRL_task,1,100,
0,0,0,0,,,4.27135515213,4,20,1,100.644361019,5,,,,,,,2017_Jul_05_1445,59.8605638245,DRL_task,1,100,
0,0,0,0,,,5.13886380196,5,21,1,105.7830832,5,,,,,,,2017_Jul_05_1445,59.8605638245,DRL_task,1,100,
0,0,0,0,,,5.67226600647,6,22,1,111.455899,5,,,,,,,2017_Jul_05_1445,59.8605638245,DRL_task,1,100,
0,0,0,0,,,5.37236404419,7,23,1,116.828266144,5,,,,,,,2017_Jul_05_1445,59.8605638245,DRL_task,1,100,
0,0,0,0,,,5.22250008583,8,24,1,122.050245047,5,,,,,,,2017_Jul_05_1445,59.8605638245,DRL_task,1,100,
0,0,0,0,,,3.48646688461,8,25,1,125.537412167,5,,,,,,,2017_Jul_05_1445,59.8605638245,DRL_task,1,100,
0,0,0,0,,,5.48931217194,9,26,1,131.026277065,5,,,,,,,2017_Jul_05_1445,59.8605638245,DRL_task,1,100,
0,0,0,0,,,6.40562486649,10,27,1,137.433151007,5,,,,,,,2017_Jul_05_1445,59.8605638245,DRL_task,1,100,
0,0,0,0,,,3.83724498749,10,28,1,141.270522118,5,,,,,,,2017_Jul_05_1445,59.8605638245,DRL_task,1,100,
0,0,0,0,,,4.98983693123,10,29,1,146.259263039,5,,,,,,,2017_Jul_05_1445,59.8605638245,DRL_task,1,100,
0,0,0,0,,,5.50602006912,11,30,1,151.76506114,5,,,,,,,2017_Jul_05_1445,59.8605638245,DRL_task,1,100,
0,0,0,0,,,6.23968505859,12,31,1,158.004968166,5,,,,,,,2017_Jul_05_1445,59.8605638245,DRL_task,1,100,
0,0,0,0,,,5.35625600815,13,32,1,163.360553026,5,,,,,,,2017_Jul_05_1445,59.8605638245,DRL_task,1,100,
0,0,0,0,,,4.72094988823,13,33,1,168.082308054,5,,,,,,,2017_Jul_05_1445,59.8605638245,DRL_task,1,100,
0,0,0,0,,,5.83986020088,14,34,1,173.921849012,5,,,,,,,2017_Jul_05_1445,59.8605638245,DRL_task,1,100,
0,0,0,0,,,6.00627779961,15,35,1,179.928111076,5,,,,,,,2017_Jul_05_1445,59.8605638245,DRL_task,1,100,
0,0,0,0,,,3.33662509918,15,36,1,183.265093088,5,,,,,,,2017_Jul_05_1445,59.8605638245,DRL_task,1,100,
0,0,0,0,,,0.600938081741,15,37,1,183.865643978,5,,,,,,,2017_Jul_05_1445,59.8605638245,DRL_task,1,100,
0,0,0,0,,,4.75366401672,15,38,1,188.620428085,5,,,,,,,2017_Jul_05_1445,59.8605638245,DRL_task,1,100,
0,0,0,0,,,5.3569419384,16,39,1,193.976336002,5,,,,,,,2017_Jul_05_1445,59.8605638245,DRL_task,1,100,
0,0,0,0,,,5.5390958786,17,40,1,199.515482187,5,,,,,,,2017_Jul_05_1445,59.8605638245,DRL_task,1,100,
0,0,0,0,,,4.55517101288,17,41,1,204.07013917,5,,,,,,,2017_Jul_05_1445,59.8605638245,DRL_task,1,100,
0,0,0,0,,,4.41960215569,17,42,1,208.491607189,5,,,,,,,2017_Jul_05_1445,59.8605638245,DRL_task,1,100,
0,0,0,0,,,6.17466592789,18,43,1,214.664864063,5,,,,,,,2017_Jul_05_1445,59.8605638245,DRL_task,1,100,
0,0,0,0,,,4.57115888596,18,44,1,219.236319065,5,,,,,,,2017_Jul_05_1445,59.8605638245,DRL_task,1,100,
0,0,0,0,,,6.05540108681,19,45,1,225.292523146,5,,,,,,,2017_Jul_05_1445,59.8605638245,DRL_task,1,100,
0,0,0,0,,,6.29097700119,20,46,1,231.582673073,5,,,,,,,2017_Jul_05_1445,59.8605638245,DRL_task,1,100,
0,0,0,0,,,3.32050895691,20,47,1,234.902674198,5,,,,,,,2017_Jul_05_1445,59.8605638245,DRL_task,1,100,
0,0,0,0,,,5.05531716347,21,48,1,239.958162069,5,,,,,,,2017_Jul_05_1445,59.8605638245,DRL_task,1,100,
0,0,0,0,,,5.57101488113,22,49,1,245.530704021,5,,,,,,,2017_Jul_05_1445,59.8605638245,DRL_task,1,100,
0,0,0,0,,,4.17117810249,22,50,1,249.701582193,5,,,,,,,2017_Jul_05_1445,59.8605638245,DRL_task,1,100,
0,0,0,0,,,4.53920793533,22,51,1,254.239879131,5,,,,,,,2017_Jul_05_1445,59.8605638245,DRL_task,1,100,
0,0,0,0,,,6.07306790352,23,52,1,260.312961102,5,,,,,,,2017_Jul_05_1445,59.8605638245,DRL_task,1,100,
0,0,0,0,,,5.72302412987,24,53,1,266.035578966,5,,,,,,,2017_Jul_05_1445,59.8605638245,DRL_task,1,100,
0,0,0,0,,,3.95417904854,24,54,1,269.989881992,5,,,,,,,2017_Jul_05_1445,59.8605638245,DRL_task,1,100,
0,0,0,0,,,5.52124094963,25,55,1,275.512089968,5,,,,,,,2017_Jul_05_1445,59.8605638245,DRL_task,1,100,
0,0,0,0,,,6.15746998787,26,56,1,281.668936968,5,,,,,,,2017_Jul_05_1445,59.8605638245,DRL_task,1,100,
0,0,0,0,,,4.68850588799,26,57,1,286.357063055,5,,,,,,,2017_Jul_05_1445,59.8605638245,DRL_task,1,100,
0,0,0,0,,,3.53724908829,26,58,1,289.893948078,5,,,,,,,2017_Jul_05_1445,59.8605638245,DRL_task,1,100,
0,0,0,0,,,7.02380490303,27,59,1,296.918275118,5,,,,,,,2017_Jul_05_1445,59.8605638245,DRL_task,1,100,
0,0,0,0,,,4.70517110825,27,60,1,301.623268127,5,,,,,,,2017_Jul_05_1445,59.8605638245,DRL_task,1,100,
0,0,0,0,,,7.45795893669,28,61,1,309.080893993,5,,,,,,,2017_Jul_05_1445,59.8605638245,DRL_task,1,100,
0,0,0,0,,,5.472397089,29,62,1,314.553385019,5,,,,,,,2017_Jul_05_1445,59.8605638245,DRL_task,1,100,
0,0,0,0,,,4.32098197937,29,63,1,318.87488699,5,,,,,,,2017_Jul_05_1445,59.8605638245,DRL_task,1,100,
0,0,0,0,,,6.99085998535,30,64,1,325.865286112,5,,,,,,,2017_Jul_05_1445,59.8605638245,DRL_task,1,100,
0,0,0,0,,,4.65336894989,30,65,1,330.520344019,5,,,,,,,2017_Jul_05_1445,59.8605638245,DRL_task,1,100,
0,0,0,0,,,4.3058950901,30,66,1,334.824918985,5,,,,,,,2017_Jul_05_1445,59.8605638245,DRL_task,1,100,
0,0,0,0,,,6.12309098244,31,67,1,340.947969198,5,,,,,,,2017_Jul_05_1445,59.8605638245,DRL_task,1,100,
0,0,0,0,,,6.20697402954,32,68,1,347.154520988,5,,,,,,,2017_Jul_05_1445,59.8605638245,DRL_task,1,100,
0,0,0,0,,,4.13599991798,32,69,1,351.292271137,5,,,,,,,2017_Jul_05_1445,59.8605638245,DRL_task,1,100,
0,0,0,0,,,6.0075750351,33,70,1,357.298633099,5,,,,,,,2017_Jul_05_1445,59.8605638245,DRL_task,1,100,
0,0,0,0,,,5.7549738884,34,71,1,363.054610968,5,,,,,,,2017_Jul_05_1445,59.8605638245,DRL_task,1,100,
0,0,0,0,,,6.04116201401,35,72,1,369.094195127,5,,,,,,,2017_Jul_05_1445,59.8605638245,DRL_task,1,100,
0,0,0,0,,,5.28875017166,36,73,1,374.383383036,5,,,,,,,2017_Jul_05_1445,59.8605638245,DRL_task,1,100,
0,0,0,0,,,4.65375685692,36,74,1,379.038166046,5,,,,,,,2017_Jul_05_1445,59.8605638245,DRL_task,1,100,
0,0,0,0,,,5.05652403831,37,75,1,384.093574047,5,,,,,,,2017_Jul_05_1445,59.8605638245,DRL_task,1,100,
0,0,0,0,,,6.57318496704,38,76,1,390.667185068,5,,,,,,,2017_Jul_05_1445,59.8605638245,DRL_task,1,100,
0,0,0,0,,,4.30350804329,38,77,1,394.971844196,5,,,,,,,2017_Jul_05_1445,59.8605638245,DRL_task,1,100,
0,0,0,0,,,5.35702109337,39,78,1,400.326831102,5,,,,,,,2017_Jul_05_1445,59.8605638245,DRL_task,1,100,
0,0,0,0,,,7.02414679527,40,79,1,407.351479053,5,,,,,,,2017_Jul_05_1445,59.8605638245,DRL_task,1,100,
0,0,0,0,,,4.75481104851,40,80,1,412.106148005,5,,,,,,,2017_Jul_05_1445,59.8605638245,DRL_task,1,100,
0,0,0,0,,,2.40130209923,40,81,1,414.50881505,5,,,,,,,2017_Jul_05_1445,59.8605638245,DRL_task,1,100,
0,0,0,0,,,7.39103984833,41,82,1,421.900086164,5,,,,,,,2017_Jul_05_1445,59.8605638245,DRL_task,1,100,
0,0,0,0,,,4.82305717468,41,83,1,426.721702099,5,,,,,,,2017_Jul_05_1445,59.8605638245,DRL_task,1,100,
0,0,0,0,,,6.52344298363,42,84,1,433.245429993,5,,,,,,,2017_Jul_05_1445,59.8605638245,DRL_task,1,100,
0,0,0,0,,,5.80656003952,43,85,1,439.051509142,5,,,,,,,2017_Jul_05_1445,59.8605638245,DRL_task,1,100,
0,0,0,0,,,4.58804988861,43,86,1,443.639539003,5,,,,,,,2017_Jul_05_1445,59.8605638245,DRL_task,1,100,
0,0,0,0,,,4.80499410629,43,87,1,448.444571018,5,,,,,,,2017_Jul_05_1445,59.8605638245,DRL_task,1,100,
0,0,0,0,,,1.73545098305,43,88,1,450.179763079,5,,,,,,,2017_Jul_05_1445,59.8605638245,DRL_task,1,100,
0,0,0,0,,,2.13546800613,43,89,1,452.315343142,5,,,,,,,2017_Jul_05_1445,59.8605638245,DRL_task,1,100,
0,0,0,0,,,6.37203001976,44,90,1,458.688922167,5,,,,,,,2017_Jul_05_1445,59.8605638245,DRL_task,1,100,
0,0,0,0,,,8.72714686394,45,91,1,467.414808035,5,,,,,,,2017_Jul_05_1445,59.8605638245,DRL_task,1,100,
0,0,0,0,,,4.36979699135,45,92,1,471.786082029,5,,,,,,,2017_Jul_05_1445,59.8605638245,DRL_task,1,100,
0,0,0,0,,,4.80494499207,45,93,1,476.591063023,5,,,,,,,2017_Jul_05_1445,59.8605638245,DRL_task,1,100,
0,0,0,0,,,6.60824394226,46,94,1,483.198131084,5,,,,,,,2017_Jul_05_1445,59.8605638245,DRL_task,1,100,
0,0,0,0,,,5.43786716461,47,95,1,488.637125015,5,,,,,,,2017_Jul_05_1445,59.8605638245,DRL_task,1,100,
0,0,0,0,,,4.13791894913,47,96,1,492.775029182,5,,,,,,,2017_Jul_05_1445,59.8605638245,DRL_task,1,100,
0,0,0,0,,,4.60602903366,47,97,1,497.37975812,5,,,,,,,2017_Jul_05_1445,59.8605638245,DRL_task,1,100,
0,0,0,0,,,5.55472993851,48,98,1,502.935432196,5,,,,,,,2017_Jul_05_1445,59.8605638245,DRL_task,1,100,
0,0,0,0,,,6.4067440033,49,99,1,509.342328072,5,,,,,,,2017_Jul_05_1445,59.8605638245,DRL_task,1,100,
0,0,0,0,,,4.20568394661,49,100,1,513.546602964,5,,,,,,,2017_Jul_05_1445,59.8605638245,DRL_task,1,100,
0,0,0,0,,,6.4401781559,50,101,1,519.986737013,5,,,,,,,2017_Jul_05_1445,59.8605638245,DRL_task,1,100,
0,0,0,0,,,5.12174701691,51,102,1,525.108959198,5,,,,,,,2017_Jul_05_1445,59.8605638245,DRL_task,1,100,
0,0,0,0,,,5.68836283684,52,103,1,530.798141003,5,,,,,,,2017_Jul_05_1445,59.8605638245,DRL_task,1,100,
0,0,0,0,,,3.83853006363,52,104,1,534.635544062,5,,,,,,,2017_Jul_05_1445,59.8605638245,DRL_task,1,100,
0,0,0,0,,,5.90658211708,53,105,1,540.541779041,5,,,,,,,2017_Jul_05_1445,59.8605638245,DRL_task,1,100,
0,0,0,0,,,5.02143597603,54,106,1,545.56391716,5,,,,,,,2017_Jul_05_1445,59.8605638245,DRL_task,1,100,
0,0,0,0,,,4.10470795631,54,107,1,549.668235064,5,,,,,,,2017_Jul_05_1445,59.8605638245,DRL_task,1,100,
0,0,0,0,,,4.83691692352,54,108,1,554.506659031,5,,,,,,,2017_Jul_05_1445,59.8605638245,DRL_task,1,100,
0,0,0,0,,,5.43906211853,55,109,1,559.945674181,5,,,,,,,2017_Jul_05_1445,59.8605638245,DRL_task,1,100,
0,0,0,0,,,6.35825896263,56,110,1,566.302244186,5,,,,,,,2017_Jul_05_1445,59.8605638245,DRL_task,1,100,
0,0,0,0,,,3.98607301712,56,111,1,570.28997612,5,,,,,,,2017_Jul_05_1445,59.8605638245,DRL_task,1,100,
0,0,0,0,,,4.77302885056,56,112,1,575.061712027,5,,,,,,,2017_Jul_05_1445,59.8605638245,DRL_task,1,100,
0,0,0,0,,,5.52234601974,57,113,1,580.584057093,5,,,,,,,2017_Jul_05_1445,59.8605638245,DRL_task,1,100,
0,0,0,0,,,2.63647413254,57,114,1,583.220149994,5,,,,,,,2017_Jul_05_1445,59.8605638245,DRL_task,1,100,
0,0,0,0,,,7.40789794922,58,115,1,590.628005028,5,,,,,,,2017_Jul_05_1445,59.8605638245,DRL_task,1,100,
0,0,0,0,,,4.63677287102,58,116,1,595.266210079,5,,,,,,,2017_Jul_05_1445,59.8605638245,DRL_task,1,100,
0,0,0,0,,,3.77177214622,58,117,1,599.036844015,5,,,,,,,2017_Jul_05_1445,59.8605638245,DRL_task,1,100,
0,0,0,0,,,6.87405705452,59,118,1,605.910730124,5,,,,,,,2017_Jul_05_1445,59.8605638245,DRL_task,1,100,
0,0,0,0,,,,,,,,,"['space', 'space', 'space', 'space', 'space', 'space', 'space', 'space', 'space', 'space', 'space', 'space', 'space', 'space', 'space', 'space', 'space', 'space', 'space', 'space', 'space', 'space', 'space', 'space', 'space', 'space', 'space', 'space', 'space', 'space', 'space', 'space', 'space', 'space', 'space', 'space', 'space', 'space', 'space', 'space', 'space', 'space', 'space', 'space', 'space', 'space', 'space', 'space', 'space', 'space', 'space', 'space', 'space', 'space', 'space', 'space', 'space', 'space', 'space', 'space', 'space', 'space', 'space', 'space', 'space', 'space', 'space', 'space', 'space', 'space', 'space', 'space', 'space', 'space', 'space', 'space', 'space', 'space', 'space', 'space', 'space', 'space', 'space', 'space', 'space', 'space', 'space', 'space', 'space', 'space', 'space', 'space', 'space', 'space', 'space', 'space', 'space', 'space', 'space', 'space', 'space', 'space', 'space', 'space', 'space', 'space', 'space', 'space', 'space', 'space', 'space', 'space', 'space', 'space', 'space', 'space', 'space', 'space']","[2.6779820919036865, 7.150613069534302, 11.522123098373413, 22.90064811706543, 38.550776958465576, 40.986507177352905, 43.555675983428955, 45.85821199417114, 49.811177015304565, 53.115992069244385, 54.91780710220337, 57.754400968551636, 60.8241810798645, 64.05954217910767, 69.36665606498718, 74.88896703720093, 79.02618503570557, 83.06430196762085, 87.88590502738953, 92.15726017951965, 97.29612398147583, 102.96838998794556, 108.34075403213501, 113.5632541179657, 117.04972100257874, 122.53903317451477, 128.94465804100037, 132.78190302848816, 137.7717399597168, 143.2777600288391, 149.51744508743286, 154.87370109558105, 159.59465098381042, 165.43451118469238, 171.4407889842987, 174.77741408348083, 175.37835216522217, 180.1320161819458, 185.48895812034607, 191.02805399894714, 195.58322501182556, 200.002827167511, 206.17749309539795, 210.74865198135376, 216.804053068161, 223.0950300693512, 226.41553902626038, 231.47085618972778, 237.04187107086182, 241.2130491733551, 245.75225710868835, 251.82532501220703, 257.5483491420746, 261.5025281906128, 267.02376914024353, 273.1812391281128, 277.869745016098, 281.4069941043854, 288.43079900741577, 293.1359701156616, 300.5939290523529, 306.0663261413574, 310.38730812072754, 317.3781681060791, 322.03153705596924, 326.3374321460724, 332.4605231285095, 338.66749715805054, 342.80349707603455, 348.81107211112976, 354.566045999527, 360.60720801353455, 365.8959581851959, 370.54971504211426, 375.6062390804291, 382.1794240474701, 386.4829320907593, 391.8399531841278, 398.86409997940063, 403.6189110279083, 406.02021312713623, 413.41125297546387, 418.2343101501465, 424.7577531337738, 430.56431317329407, 435.1523630619049, 439.95735716819763, 441.6928081512451, 443.82827615737915, 450.2003061771393, 458.92745304107666, 463.2972500324249, 468.10219502449036, 474.7104389667511, 480.1483061313629, 484.2862250804901, 488.892254114151, 494.4469840526581, 500.853728055954, 505.0594120025635, 511.4995901584625, 516.6213371753693, 522.309700012207, 526.1482300758362, 532.0548121929169, 537.0762481689453, 541.1809561252594, 546.0178730487823, 551.4569351673126, 557.8151941299438, 561.8012671470642, 566.5742959976196, 572.0966420173645, 574.7331161499023, 582.1410140991211, 586.7777869701385, 590.5495591163635, 597.4236161708832]",space,19.9054851532,,,2017_Jul_05_1445,59.8605638245,DRL_task,1,100,
1,0,1,0,,,3.06982707977,59,1,2,632.77248311,5,,,,,,,2017_Jul_05_1445,59.8605638245,DRL_task,1,100,
1,0,1,0,,,5.40560388565,60,2,2,638.178284168,5,,,,,,,2017_Jul_05_1445,59.8605638245,DRL_task,1,100,
1,0,1,0,,,5.12181901932,61,3,2,643.300223112,5,,,,,,,2017_Jul_05_1445,59.8605638245,DRL_task,1,100,
1,0,1,0,,,6.15673995018,62,4,2,649.456887007,5,,,,,,,2017_Jul_05_1445,59.8605638245,DRL_task,1,100,
1,0,1,0,,,4.55495405197,62,5,2,654.011487007,5,,,,,,,2017_Jul_05_1445,59.8605638245,DRL_task,1,100,
1,0,1,0,,,4.30425810814,62,6,2,658.316040039,5,,,,,,,2017_Jul_05_1445,59.8605638245,DRL_task,1,100,
1,0,1,0,,,3.70368695259,62,7,2,662.019999027,5,,,,,,,2017_Jul_05_1445,59.8605638245,DRL_task,1,100,
1,0,1,0,,,8.90984892845,63,8,2,670.929357052,5,,,,,,,2017_Jul_05_1445,59.8605638245,DRL_task,1,100,
1,0,1,0,,,4.15391516685,63,9,2,675.083894014,5,,,,,,,2017_Jul_05_1445,59.8605638245,DRL_task,1,100,
1,0,1,0,,,4.90516591072,63,10,2,679.989051104,5,,,,,,,2017_Jul_05_1445,59.8605638245,DRL_task,1,100,
1,0,1,0,,,3.85461497307,63,11,2,683.842952967,5,,,,,,,2017_Jul_05_1445,59.8605638245,DRL_task,1,100,
1,0,1,0,,,4.58825612068,63,12,2,688.431456089,5,,,,,,,2017_Jul_05_1445,59.8605638245,DRL_task,1,100,
1,0,1,0,,,5.17157196999,64,13,2,693.603496075,5,,,,,,,2017_Jul_05_1445,59.8605638245,DRL_task,1,100,
1,0,1,0,,,6.42242693901,65,14,2,700.026651144,5,,,,,,,2017_Jul_05_1445,59.8605638245,DRL_task,1,100,
1,0,1,0,,,4.33913397789,65,15,2,704.364611149,5,,,,,,,2017_Jul_05_1445,59.8605638245,DRL_task,1,100,
1,0,1,0,,,5.87177205086,66,16,2,710.237516165,5,,,,,,,2017_Jul_05_1445,59.8605638245,DRL_task,1,100,
1,0,1,0,,,5.02170801163,67,17,2,715.259677172,5,,,,,,,2017_Jul_05_1445,59.8605638245,DRL_task,1,100,
1,0,1,0,,,5.72284984589,68,18,2,720.982149124,5,,,,,,,2017_Jul_05_1445,59.8605638245,DRL_task,1,100,
1,0,1,0,,,4.52273106575,68,19,2,725.503753185,5,,,,,,,2017_Jul_05_1445,59.8605638245,DRL_task,1,100,
1,0,1,0,,,4.8548989296,68,20,2,730.358936071,5,,,,,,,2017_Jul_05_1445,59.8605638245,DRL_task,1,100,
1,0,1,0,,,5.27286815643,69,21,2,735.631088972,5,,,,,,,2017_Jul_05_1445,59.8605638245,DRL_task,1,100,
1,0,1,0,,,7.52259993553,70,22,2,743.155580044,5,,,,,,,2017_Jul_05_1445,59.8605638245,DRL_task,1,100,
1,0,1,0,,,4.40622401237,70,23,2,747.560199022,5,,,,,,,2017_Jul_05_1445,59.8605638245,DRL_task,1,100,
1,0,1,0,,,5.67246699333,71,24,2,753.232831001,5,,,,,,,2017_Jul_05_1445,59.8605638245,DRL_task,1,100,
1,0,1,0,,,3.97204589844,71,25,2,757.203710079,5,,,,,,,2017_Jul_05_1445,59.8605638245,DRL_task,1,100,
1,0,1,0,,,4.05292916298,71,26,2,761.258211136,5,,,,,,,2017_Jul_05_1445,59.8605638245,DRL_task,1,100,
1,0,1,0,,,4.72218394279,71,27,2,765.979621172,5,,,,,,,2017_Jul_05_1445,59.8605638245,DRL_task,1,100,
1,0,1,0,,,5.07211089134,72,28,2,771.051697969,5,,,,,,,2017_Jul_05_1445,59.8605638245,DRL_task,1,100,
1,0,1,0,,,9.49150300026,73,29,2,780.545214176,5,,,,,,,2017_Jul_05_1445,59.8605638245,DRL_task,1,100,
1,0,1,0,,,4.42166519165,73,30,2,784.966322184,5,,,,,,,2017_Jul_05_1445,59.8605638245,DRL_task,1,100,
1,0,1,0,,,6.32477688789,74,31,2,791.289747,5,,,,,,,2017_Jul_05_1445,59.8605638245,DRL_task,1,100,
1,0,1,0,,,4.43763494492,74,32,2,795.727679014,5,,,,,,,2017_Jul_05_1445,59.8605638245,DRL_task,1,100,
1,0,1,0,,,6.70733904839,75,33,2,802.434725046,5,,,,,,,2017_Jul_05_1445,59.8605638245,DRL_task,1,100,
1,0,1,0,,,4.45480513573,75,34,2,806.889619112,5,,,,,,,2017_Jul_05_1445,59.8605638245,DRL_task,1,100,
1,0,1,0,,,5.85473680496,76,35,2,812.745622158,5,,,,,,,2017_Jul_05_1445,59.8605638245,DRL_task,1,100,
1,0,1,0,,,6.09103107452,77,36,2,818.83555603,5,,,,,,,2017_Jul_05_1445,59.8605638245,DRL_task,1,100,
1,0,1,0,,,4.52140498161,77,37,2,823.356775999,5,,,,,,,2017_Jul_05_1445,59.8605638245,DRL_task,1,100,
1,0,1,0,,,6.38989114761,78,38,2,829.746978998,5,,,,,,,2017_Jul_05_1445,59.8605638245,DRL_task,1,100,
1,0,1,0,,,7.20777988434,79,39,2,836.954614162,5,,,,,,,2017_Jul_05_1445,59.8605638245,DRL_task,1,100,
1,0,1,0,,,4.67173600197,79,40,2,841.625998974,5,,,,,,,2017_Jul_05_1445,59.8605638245,DRL_task,1,100,
1,0,1,0,,,2.91936397552,79,41,2,844.546018124,5,,,,,,,2017_Jul_05_1445,59.8605638245,DRL_task,1,100,
1,0,1,0,,,6.73927092552,80,42,2,851.286300182,5,,,,,,,2017_Jul_05_1445,59.8605638245,DRL_task,1,100,
1,0,1,0,,,5.37238907814,81,43,2,856.658653021,5,,,,,,,2017_Jul_05_1445,59.8605638245,DRL_task,1,100,
1,0,1,0,,,4.48779892921,81,44,2,861.146874189,5,,,,,,,2017_Jul_05_1445,59.8605638245,DRL_task,1,100,
1,0,1,0,,,6.67370820045,82,45,2,867.820502043,5,,,,,,,2017_Jul_05_1445,59.8605638245,DRL_task,1,100,
1,0,1,0,,,6.57487797737,83,46,2,874.39419508,5,,,,,,,2017_Jul_05_1445,59.8605638245,DRL_task,1,100,
1,0,1,0,,,5.20581483841,84,47,2,879.599750042,5,,,,,,,2017_Jul_05_1445,59.8605638245,DRL_task,1,100,
1,0,1,0,,,7.10594797134,85,48,2,886.707123995,5,,,,,,,2017_Jul_05_1445,59.8605638245,DRL_task,1,100,
1,0,1,0,,,4.15594315529,85,49,2,890.861378193,5,,,,,,,2017_Jul_05_1445,59.8605638245,DRL_task,1,100,
1,0,1,0,,,4.33792495728,85,50,2,895.199305058,5,,,,,,,2017_Jul_05_1445,59.8605638245,DRL_task,1,100,
1,0,1,0,,,3.45207905769,85,51,2,898.653211117,5,,,,,,,2017_Jul_05_1445,59.8605638245,DRL_task,1,100,
1,0,1,0,,,9.52685689926,86,52,2,908.179610014,5,,,,,,,2017_Jul_05_1445,59.8605638245,DRL_task,1,100,
1,0,1,0,,,5.38979101181,87,53,2,913.568814039,5,,,,,,,2017_Jul_05_1445,59.8605638245,DRL_task,1,100,
1,0,1,0,,,4.95596814156,87,54,2,918.523898125,5,,,,,,,2017_Jul_05_1445,59.8605638245,DRL_task,1,100,
1,0,1,0,,,5.47249794006,88,55,2,923.996391058,5,,,,,,,2017_Jul_05_1445,59.8605638245,DRL_task,1,100,
1,0,1,0,,,4.83850383759,88,56,2,928.834841967,5,,,,,,,2017_Jul_05_1445,59.8605638245,DRL_task,1,100,
1,0,1,0,,,1.76869416237,88,57,2,930.603374004,5,,,,,,,2017_Jul_05_1445,59.8605638245,DRL_task,1,100,
1,0,1,0,,,3.88717889786,88,58,2,934.490962982,5,,,,,,,2017_Jul_05_1445,59.8605638245,DRL_task,1,100,
1,0,1,0,,,4.08598804474,88,59,2,938.578564167,5,,,,,,,2017_Jul_05_1445,59.8605638245,DRL_task,1,100,
1,0,1,0,,,5.3072578907,89,60,2,943.884247065,5,,,,,,,2017_Jul_05_1445,59.8605638245,DRL_task,1,100,
1,0,1,0,,,6.17150402069,90,61,2,950.057407141,5,,,,,,,2017_Jul_05_1445,59.8605638245,DRL_task,1,100,
1,0,1,0,,,6.45693206787,91,62,2,956.513949156,5,,,,,,,2017_Jul_05_1445,59.8605638245,DRL_task,1,100,
1,0,1,0,,,5.82362699509,92,63,2,962.337022066,5,,,,,,,2017_Jul_05_1445,59.8605638245,DRL_task,1,100,
1,0,1,0,,,5.07232308388,93,64,2,967.408991098,5,,,,,,,2017_Jul_05_1445,59.8605638245,DRL_task,1,100,
1,0,1,0,,,4.08786988258,93,65,2,971.496469021,5,,,,,,,2017_Jul_05_1445,59.8605638245,DRL_task,1,100,
1,0,1,0,,,2.20258402824,93,66,2,973.698729038,5,,,,,,,2017_Jul_05_1445,59.8605638245,DRL_task,1,100,
1,0,1,0,,,5.62264299393,94,67,2,979.32170105,5,,,,,,,2017_Jul_05_1445,59.8605638245,DRL_task,1,100,
1,0,1,0,,,3.38541698456,94,68,2,982.70828414,5,,,,,,,2017_Jul_05_1445,59.8605638245,DRL_task,1,100,
1,0,1,0,,,5.40704512596,95,69,2,988.113769054,5,,,,,,,2017_Jul_05_1445,59.8605638245,DRL_task,1,100,
1,0,1,0,,,5.45576286316,96,70,2,993.570060968,5,,,,,,,2017_Jul_05_1445,59.8605638245,DRL_task,1,100,
1,0,1,0,,,4.65507316589,96,71,2,998.224712133,5,,,,,,,2017_Jul_05_1445,59.8605638245,DRL_task,1,100,
1,0,1,0,,,4.7713727951,96,72,2,1002.99639106,5,,,,,,,2017_Jul_05_1445,59.8605638245,DRL_task,1,100,
1,0,1,0,,,5.10517907143,97,73,2,1008.10173607,5,,,,,,,2017_Jul_05_1445,59.8605638245,DRL_task,1,100,
1,0,1,0,,,5.13911008835,98,74,2,1013.24053812,5,,,,,,,2017_Jul_05_1445,59.8605638245,DRL_task,1,100,
1,0,1,0,,,3.88740992546,98,75,2,1017.128052,5,,,,,,,2017_Jul_05_1445,59.8605638245,DRL_task,1,100,
1,0,1,0,,,4.853703022,98,76,2,1021.98318315,5,,,,,,,2017_Jul_05_1445,59.8605638245,DRL_task,1,100,
1,0,1,0,,,5.25700306892,99,77,2,1027.23880315,5,,,,,,,2017_Jul_05_1445,59.8605638245,DRL_task,1,100,
1,0,1,0,,,4.65455198288,99,78,2,1031.8936801,5,,,,,,,2017_Jul_05_1445,59.8605638245,DRL_task,1,100,
1,0,1,0,,,6.47393989563,100,79,2,1038.36700606,5,,,,,,,2017_Jul_05_1445,59.8605638245,DRL_task,1,100,
1,0,1,0,,,5.60564112663,101,80,2,1043.97292805,5,,,,,,,2017_Jul_05_1445,59.8605638245,DRL_task,1,100,
1,0,1,0,,,4.38671183586,101,81,2,1048.361063,5,,,,,,,2017_Jul_05_1445,59.8605638245,DRL_task,1,100,
1,0,1,0,,,5.77439117432,102,82,2,1054.13368702,5,,,,,,,2017_Jul_05_1445,59.8605638245,DRL_task,1,100,
1,0,1,0,,,4.67163491249,102,83,2,1058.80528998,5,,,,,,,2017_Jul_05_1445,59.8605638245,DRL_task,1,100,
1,0,1,0,,,1.41793298721,102,84,2,1060.22361398,5,,,,,,,2017_Jul_05_1445,59.8605638245,DRL_task,1,100,
1,0,1,0,,,4.38656902313,102,85,2,1064.61145711,5,,,,,,,2017_Jul_05_1445,59.8605638245,DRL_task,1,100,
1,0,1,0,,,5.69077992439,103,86,2,1070.3009522,5,,,,,,,2017_Jul_05_1445,59.8605638245,DRL_task,1,100,
1,0,1,0,,,5.47234010696,104,87,2,1075.77339697,5,,,,,,,2017_Jul_05_1445,59.8605638245,DRL_task,1,100,
1,0,1,0,,,6.05585885048,105,88,2,1081.82954407,5,,,,,,,2017_Jul_05_1445,59.8605638245,DRL_task,1,100,
1,0,1,0,,,5.32250618935,106,89,2,1087.15202498,5,,,,,,,2017_Jul_05_1445,59.8605638245,DRL_task,1,100,
1,0,1,0,,,4.68709588051,106,90,2,1091.84035015,5,,,,,,,2017_Jul_05_1445,59.8605638245,DRL_task,1,100,
1,0,1,0,,,4.27237010002,106,91,2,1096.11139798,5,,,,,,,2017_Jul_05_1445,59.8605638245,DRL_task,1,100,
1,0,1,0,,,4.97077989578,106,92,2,1101.08314204,5,,,,,,,2017_Jul_05_1445,59.8605638245,DRL_task,1,100,
1,0,1,0,,,5.22328710556,107,93,2,1106.30557704,5,,,,,,,2017_Jul_05_1445,59.8605638245,DRL_task,1,100,
1,0,1,0,,,4.47172999382,107,94,2,1110.77691603,5,,,,,,,2017_Jul_05_1445,59.8605638245,DRL_task,1,100,
1,0,1,0,,,5.42117500305,108,95,2,1116.19917417,5,,,,,,,2017_Jul_05_1445,59.8605638245,DRL_task,1,100,
1,0,1,0,,,3.90409493446,108,96,2,1120.10328817,5,,,,,,,2017_Jul_05_1445,59.8605638245,DRL_task,1,100,
1,0,1,0,,,4.8214058876,108,97,2,1124.92517805,5,,,,,,,2017_Jul_05_1445,59.8605638245,DRL_task,1,100,
1,0,1,0,,,5.42399215698,109,98,2,1130.34748411,5,,,,,,,2017_Jul_05_1445,59.8605638245,DRL_task,1,100,
1,0,1,0,,,5.13726902008,110,99,2,1135.48618317,5,,,,,,,2017_Jul_05_1445,59.8605638245,DRL_task,1,100,
1,0,1,0,,,2.71944403648,110,100,2,1138.20588207,5,,,,,,,2017_Jul_05_1445,59.8605638245,DRL_task,1,100,
1,0,1,0,,,1.26799583435,110,101,2,1139.47391105,5,,,,,,,2017_Jul_05_1445,59.8605638245,DRL_task,1,100,
1,0,1,0,,,4.32280611992,110,102,2,1143.79490018,5,,,,,,,2017_Jul_05_1445,59.8605638245,DRL_task,1,100,
1,0,1,0,,,5.07201504707,111,103,2,1148.86718106,5,,,,,,,2017_Jul_05_1445,59.8605638245,DRL_task,1,100,
1,0,1,0,,,5.53774094582,112,104,2,1154.40626812,5,,,,,,,2017_Jul_05_1445,59.8605638245,DRL_task,1,100,
1,0,1,0,,,3.52038598061,112,105,2,1157.92656302,5,,,,,,,2017_Jul_05_1445,59.8605638245,DRL_task,1,100,
1,0,1,0,,,0.852159976959,112,106,2,1158.77759218,5,,,,,,,2017_Jul_05_1445,59.8605638245,DRL_task,1,100,
1,0,1,0,,,0.400409936905,112,107,2,1159.1779902,5,,,,,,,2017_Jul_05_1445,59.8605638245,DRL_task,1,100,
1,0,1,0,,,5.97315311432,113,108,2,1165.15094209,5,,,,,,,2017_Jul_05_1445,59.8605638245,DRL_task,1,100,
1,0,1,0,,,5.98945093155,114,109,2,1171.14042306,5,,,,,,,2017_Jul_05_1445,59.8605638245,DRL_task,1,100,
1,0,1,0,,,4.07104492188,114,110,2,1175.21147203,5,,,,,,,2017_Jul_05_1445,59.8605638245,DRL_task,1,100,
1,0,1,0,,,5.08727908134,115,111,2,1180.30022812,5,,,,,,,2017_Jul_05_1445,59.8605638245,DRL_task,1,100,
1,0,1,0,,,5.24009203911,116,112,2,1185.53913403,5,,,,,,,2017_Jul_05_1445,59.8605638245,DRL_task,1,100,
1,0,1,0,,,5.47137093544,117,113,2,1191.01144505,5,,,,,,,2017_Jul_05_1445,59.8605638245,DRL_task,1,100,
1,0,1,0,,,3.5036380291,117,114,2,1194.51498914,5,,,,,,,2017_Jul_05_1445,59.8605638245,DRL_task,1,100,
1,0,1,0,,,5.28878998756,118,115,2,1199.80426002,5,,,,,,,2017_Jul_05_1445,59.8605638245,DRL_task,1,100,
1,0,1,0,,,6.25799298286,119,116,2,1206.06064105,5,,,,,,,2017_Jul_05_1445,59.8605638245,DRL_task,1,100,
1,0,1,0,,,5.20426797867,120,117,2,1211.26619601,5,,,,,,,2017_Jul_05_1445,59.8605638245,DRL_task,1,100,
1,0,1,0,,,4.43796515465,120,118,2,1215.70412111,5,,,,,,,2017_Jul_05_1445,59.8605638245,DRL_task,1,100,
1,0,1,0,,,8.02635788918,121,119,2,1223.72942019,5,,,,,,,2017_Jul_05_1445,59.8605638245,DRL_task,1,100,
1,0,1,0,,,,,,,,,"['space', 'space', 'space', 'space', 'space', 'space', 'space', 'space', 'space', 'space', 'space', 'space', 'space', 'space', 'space', 'space', 'space', 'space', 'space', 'space', 'space', 'space', 'space', 'space', 'space', 'space', 'space', 'space', 'space', 'space', 'space', 'space', 'space', 'space', 'space', 'space', 'space', 'space', 'space', 'space', 'space', 'space', 'space', 'space', 'space', 'space', 'space', 'space', 'space', 'space', 'space', 'space', 'space', 'space', 'space', 'space', 'space', 'space', 'space', 'space', 'space', 'space', 'space', 'space', 'space', 'space', 'space', 'space', 'space', 'space', 'space', 'space', 'space', 'space', 'space', 'space', 'space', 'space', 'space', 'space', 'space', 'space', 'space', 'space', 'space', 'space', 'space', 'space', 'space', 'space', 'space', 'space', 'space', 'space', 'space', 'space', 'space', 'space', 'space', 'space', 'space', 'space', 'space', 'space', 'space', 'space', 'space', 'space', 'space', 'space', 'space', 'space', 'space', 'space', 'space', 'space', 'space', 'space', 'space']","[3.069827079772949, 8.475430965423584, 13.597249984741211, 19.753989934921265, 24.3089439868927, 28.61320209503174, 32.31688904762268, 41.22673797607422, 45.38065314292908, 50.2858190536499, 54.14043402671814, 58.7286901473999, 63.900262117385864, 70.32268905639648, 74.6618230342865, 80.53359508514404, 85.55530309677124, 91.27815294265747, 95.80088400840759, 100.65578293800354, 105.92865109443665, 113.45125102996826, 117.85747504234314, 123.52994203567505, 127.50198793411255, 131.55491709709167, 136.27710103988647, 141.34921193122864, 150.84071493148804, 155.26238012313843, 161.5871570110321, 166.02479195594788, 172.7321310043335, 177.18693614006042, 183.04167294502258, 189.1327040195465, 193.65410900115967, 200.0440001487732, 207.25178003311157, 211.92351603507996, 214.84288001060486, 221.5821509361267, 226.95454001426697, 231.44233894348145, 238.11604714393616, 244.69092512130737, 249.8967399597168, 257.0026879310608, 261.1586310863495, 265.4965560436249, 268.94863510131836, 278.47549200057983, 283.86528301239014, 288.8212511539459, 294.2937490940094, 299.13225293159485, 300.9009470939636, 304.7881259918213, 308.87411403656006, 314.18137192726135, 320.35287594795227, 326.80980801582336, 332.63343501091003, 337.7057580947876, 341.7936279773712, 343.99621200561523, 349.61885499954224, 353.00427198410034, 358.41131711006165, 363.8670799732208, 368.5221531391144, 373.29352593421936, 378.39870500564575, 383.53781509399414, 387.42522501945496, 392.27892804145813, 397.5359311103821, 402.1904830932617, 408.6644229888916, 414.2700641155243, 418.6567759513855, 424.4311671257019, 429.10280203819275, 430.5207350254059, 434.9073040485382, 440.5980839729309, 446.070424079895, 452.12628293037415, 457.44878911972046, 462.1358850002289, 466.40825510025024, 471.3790349960327, 476.602322101593, 481.0740520954132, 486.49522709846497, 490.39932203292847, 495.2207279205322, 500.64472007751465, 505.7819890975952, 508.501433134079, 509.76942896842957, 514.0922350883484, 519.1642501354218, 524.7019910812378, 528.2223770618439, 529.0745370388031, 529.474946975708, 535.4481000900269, 541.4375510215759, 545.5085959434509, 550.5958750247955, 555.8359670639038, 561.3073379993439, 564.8109760284424, 570.0997660160065, 576.3577589988708, 581.5620269775391, 585.9999921321869, 594.0263500213623]",space,15.5844638348,,,2017_Jul_05_1445,59.8605638245,DRL_task,1,100,
2,0,2,0,,,4.46096205711,121,1,3,1250.99154305,5,,,,,,,2017_Jul_05_1445,59.8605638245,DRL_task,1,100,
2,0,2,0,,,5.3389840126,122,2,3,1256.33055615,5,,,,,,,2017_Jul_05_1445,59.8605638245,DRL_task,1,100,
2,0,2,0,,,4.43815588951,122,3,3,1260.76858711,5,,,,,,,2017_Jul_05_1445,59.8605638245,DRL_task,1,100,
2,0,2,0,,,6.02303004265,123,4,3,1266.79142809,5,,,,,,,2017_Jul_05_1445,59.8605638245,DRL_task,1,100,
2,0,2,0,,,4.57129812241,123,5,3,1271.36302018,5,,,,,,,2017_Jul_05_1445,59.8605638245,DRL_task,1,100,
2,0,2,0,,,5.07205295563,124,6,3,1276.43509507,5,,,,,,,2017_Jul_05_1445,59.8605638245,DRL_task,1,100,
2,0,2,0,,,5.75640583038,125,7,3,1282.19095206,5,,,,,,,2017_Jul_05_1445,59.8605638245,DRL_task,1,100,
2,0,2,0,,,5.67243814468,126,8,3,1287.86358118,5,,,,,,,2017_Jul_05_1445,59.8605638245,DRL_task,1,100,
2,0,2,0,,,5.02199196815,127,9,3,1292.88573217,5,,,,,,,2017_Jul_05_1445,59.8605638245,DRL_task,1,100,
2,0,2,0,,,4.30434203148,127,10,3,1297.19029808,5,,,,,,,2017_Jul_05_1445,59.8605638245,DRL_task,1,100,
2,0,2,0,,,4.62172007561,127,11,3,1301.81166315,5,,,,,,,2017_Jul_05_1445,59.8605638245,DRL_task,1,100,
2,0,2,0,,,3.50511789322,127,12,3,1305.31536412,5,,,,,,,2017_Jul_05_1445,59.8605638245,DRL_task,1,100,
2,0,2,0,,,6.52322411537,128,13,3,1311.83909011,5,,,,,,,2017_Jul_05_1445,59.8605638245,DRL_task,1,100,
2,0,2,0,,,5.80616593361,129,14,3,1317.64513898,5,,,,,,,2017_Jul_05_1445,59.8605638245,DRL_task,1,100,
2,0,2,0,,,4.65375494957,129,15,3,1322.29991412,5,,,,,,,2017_Jul_05_1445,59.8605638245,DRL_task,1,100,
2,0,2,0,,,6.8919210434,130,16,3,1329.19056702,5,,,,,,,2017_Jul_05_1445,59.8605638245,DRL_task,1,100,
2,0,2,0,,,4.17112588882,130,17,3,1333.37830806,5,,,,,,,2017_Jul_05_1445,59.8605638245,DRL_task,1,100,
2,0,2,0,,,2.55270504951,130,18,3,1335.91426706,5,,,,,,,2017_Jul_05_1445,59.8605638245,DRL_task,1,100,
2,0,2,0,,,1.90177297592,130,19,3,1337.81638718,5,,,,,,,2017_Jul_05_1445,59.8605638245,DRL_task,1,100,
2,0,2,0,,,7.1581029892,131,20,3,1344.97381902,5,,,,,,,2017_Jul_05_1445,59.8605638245,DRL_task,1,100,
2,0,2,0,,,4.1707379818,131,21,3,1349.14490509,5,,,,,,,2017_Jul_05_1445,59.8605638245,DRL_task,1,100,
2,0,2,0,,,5.50465011597,132,22,3,1354.65072918,5,,,,,,,2017_Jul_05_1445,59.8605638245,DRL_task,1,100,
2,0,2,0,,,4.85476183891,132,23,3,1359.50602818,5,,,,,,,2017_Jul_05_1445,59.8605638245,DRL_task,1,100,
2,0,2,0,,,4.07098507881,132,24,3,1363.577039,5,,,,,,,2017_Jul_05_1445,59.8605638245,DRL_task,1,100,
2,0,2,0,,,7.57609605789,133,25,3,1371.15172601,5,,,,,,,2017_Jul_05_1445,59.8605638245,DRL_task,1,100,
2,0,2,0,,,6.95602488518,134,26,3,1378.10885501,5,,,,,,,2017_Jul_05_1445,59.8605638245,DRL_task,1,100,
2,0,2,0,,,5.15531015396,135,27,3,1383.26441312,5,,,,,,,2017_Jul_05_1445,59.8605638245,DRL_task,1,100,
2,0,2,0,,,3.45538687706,135,28,3,1386.71789813,5,,,,,,,2017_Jul_05_1445,59.8605638245,DRL_task,1,100,
2,0,2,0,,,5.77102017403,136,29,3,1392.49087214,5,,,,,,,2017_Jul_05_1445,59.8605638245,DRL_task,1,100,
2,0,2,0,,,4.32135677338,136,30,3,1396.81191206,5,,,,,,,2017_Jul_05_1445,59.8605638245,DRL_task,1,100,
2,0,2,0,,,4.63840818405,136,31,3,1401.45010519,5,,,,,,,2017_Jul_05_1445,59.8605638245,DRL_task,1,100,
2,0,2,0,,,4.83846282959,136,32,3,1406.28853297,5,,,,,,,2017_Jul_05_1445,59.8605638245,DRL_task,1,100,
2,0,2,0,,,7.40775609016,137,33,3,1413.69632816,5,,,,,,,2017_Jul_05_1445,59.8605638245,DRL_task,1,100,
2,0,2,0,,,7.10912203789,138,34,3,1420.80386996,5,,,,,,,2017_Jul_05_1445,59.8605638245,DRL_task,1,100,
2,0,2,0,,,6.48827195168,139,35,3,1427.29426408,5,,,,,,,2017_Jul_05_1445,59.8605638245,DRL_task,1,100,
2,0,2,0,,,5.32365608215,140,36,3,1432.6162982,5,,,,,,,2017_Jul_05_1445,59.8605638245,DRL_task,1,100,
2,0,2,0,,,8.72454285622,141,37,3,1441.34239912,5,,,,,,,2017_Jul_05_1445,59.8605638245,DRL_task,1,100,
2,0,2,0,,,5.39065814018,142,38,3,1446.731251,5,,,,,,,2017_Jul_05_1445,59.8605638245,DRL_task,1,100,
2,0,2,0,,,4.83809185028,142,39,3,1451.56987214,5,,,,,,,2017_Jul_05_1445,59.8605638245,DRL_task,1,100,
2,0,2,0,,,1.66709303856,142,40,3,1453.23828197,5,,,,,,,2017_Jul_05_1445,59.8605638245,DRL_task,1,100,
2,0,2,0,,,2.95373415947,142,41,3,1456.1917851,5,,,,,,,2017_Jul_05_1445,59.8605638245,DRL_task,1,100,
2,0,2,0,,,4.88929796219,142,42,3,1461.07970119,5,,,,,,,2017_Jul_05_1445,59.8605638245,DRL_task,1,100,
2,0,2,0,,,6.70701384544,143,43,3,1467.78672719,5,,,,,,,2017_Jul_05_1445,59.8605638245,DRL_task,1,100,
2,0,2,0,,,5.32230520248,144,44,3,1473.10903215,5,,,,,,,2017_Jul_05_1445,59.8605638245,DRL_task,1,100,
2,0,2,0,,,4.97211194038,144,45,3,1478.080966,5,,,,,,,2017_Jul_05_1445,59.8605638245,DRL_task,1,100,
2,0,2,0,,,5.57107400894,145,46,3,1483.65347004,5,,,,,,,2017_Jul_05_1445,59.8605638245,DRL_task,1,100,
2,0,2,0,,,4.55643701553,145,47,3,1488.20827818,5,,,,,,,2017_Jul_05_1445,59.8605638245,DRL_task,1,100,
2,0,2,0,,,4.5711209774,145,48,3,1492.77941918,5,,,,,,,2017_Jul_05_1445,59.8605638245,DRL_task,1,100,
2,0,2,0,,,5.52240395546,146,49,3,1498.30247116,5,,,,,,,2017_Jul_05_1445,59.8605638245,DRL_task,1,100,
2,0,2,0,,,4.98873591423,146,50,3,1503.29092097,5,,,,,,,2017_Jul_05_1445,59.8605638245,DRL_task,1,100,
2,0,2,0,,,4.87072610855,146,51,3,1508.16270709,5,,,,,,,2017_Jul_05_1445,59.8605638245,DRL_task,1,100,
2,0,2,0,,,5.32192993164,147,52,3,1513.48513508,5,,,,,,,2017_Jul_05_1445,59.8605638245,DRL_task,1,100,
2,0,2,0,,,6.57486414909,148,53,3,1520.05882215,5,,,,,,,2017_Jul_05_1445,59.8605638245,DRL_task,1,100,
2,0,2,0,,,7.94178199768,149,54,3,1528.00051713,5,,,,,,,2017_Jul_05_1445,59.8605638245,DRL_task,1,100,
2,0,2,0,,,4.6884868145,149,55,3,1532.68854213,5,,,,,,,2017_Jul_05_1445,59.8605638245,DRL_task,1,100,
2,0,2,0,,,5.30420303345,150,56,3,1537.99406505,5,,,,,,,2017_Jul_05_1445,59.8605638245,DRL_task,1,100,
2,0,2,0,,,4.68931603432,150,57,3,1542.68253803,5,,,,,,,2017_Jul_05_1445,59.8605638245,DRL_task,1,100,
2,0,2,0,,,6.2067759037,151,58,3,1548.88853312,5,,,,,,,2017_Jul_05_1445,59.8605638245,DRL_task,1,100,
2,0,2,0,,,8.20754814148,152,59,3,1557.097651,5,,,,,,,2017_Jul_05_1445,59.8605638245,DRL_task,1,100,
2,0,2,0,,,5.00515794754,153,60,3,1562.1028862,5,,,,,,,2017_Jul_05_1445,59.8605638245,DRL_task,1,100,
2,0,2,0,,,4.8396999836,153,61,3,1566.94140816,5,,,,,,,2017_Jul_05_1445,59.8605638245,DRL_task,1,100,
2,0,2,0,,,6.48874592781,154,62,3,1573.43175197,5,,,,,,,2017_Jul_05_1445,59.8605638245,DRL_task,1,100,
2,0,2,0,,,6.57495117188,155,63,3,1580.00534105,5,,,,,,,2017_Jul_05_1445,59.8605638245,DRL_task,1,100,
2,0,2,0,,,5.83939003944,156,64,3,1585.84481502,5,,,,,,,2017_Jul_05_1445,59.8605638245,DRL_task,1,100,
2,0,2,0,,,3.85462379456,156,65,3,1589.69869804,5,,,,,,,2017_Jul_05_1445,59.8605638245,DRL_task,1,100,
2,0,2,0,,,9.82641911507,157,66,3,1599.52599096,5,,,,,,,2017_Jul_05_1445,59.8605638245,DRL_task,1,100,
2,0,2,0,,,6.13863396645,158,67,3,1605.66567898,5,,,,,,,2017_Jul_05_1445,59.8605638245,DRL_task,1,100,
2,0,2,0,,,4.70639491081,158,68,3,1610.37054706,5,,,,,,,2017_Jul_05_1445,59.8605638245,DRL_task,1,100,
2,0,2,0,,,6.65684509277,159,69,3,1617.02775812,5,,,,,,,2017_Jul_05_1445,59.8605638245,DRL_task,1,100,
2,0,2,0,,,5.57254505157,160,70,3,1622.60032201,5,,,,,,,2017_Jul_05_1445,59.8605638245,DRL_task,1,100,
2,0,2,0,,,6.12322688103,161,71,3,1628.72323108,5,,,,,,,2017_Jul_05_1445,59.8605638245,DRL_task,1,100,
2,0,2,0,,,5.32218813896,162,72,3,1634.04569602,5,,,,,,,2017_Jul_05_1445,59.8605638245,DRL_task,1,100,
2,0,2,0,,,5.05531191826,163,73,3,1639.10103703,5,,,,,,,2017_Jul_05_1445,59.8605638245,DRL_task,1,100,
2,0,2,0,,,4.65498590469,163,74,3,1643.75568414,5,,,,,,,2017_Jul_05_1445,59.8605638245,DRL_task,1,100,
2,0,2,0,,,4.73718619347,163,75,3,1648.49406314,5,,,,,,,2017_Jul_05_1445,59.8605638245,DRL_task,1,100,
2,0,2,0,,,5.205534935,164,76,3,1653.69954014,5,,,,,,,2017_Jul_05_1445,59.8605638245,DRL_task,1,100,
2,0,2,0,,,6.37460708618,165,77,3,1660.0730021,5,,,,,,,2017_Jul_05_1445,59.8605638245,DRL_task,1,100,
2,0,2,0,,,7.04047584534,166,78,3,1667.1138711,5,,,,,,,2017_Jul_05_1445,59.8605638245,DRL_task,1,100,
2,0,2,0,,,4.12128806114,166,79,3,1671.23475099,5,,,,,,,2017_Jul_05_1445,59.8605638245,DRL_task,1,100,
2,0,2,0,,,4.68696498871,166,80,3,1675.92326999,5,,,,,,,2017_Jul_05_1445,59.8605638245,DRL_task,1,100,
2,0,2,0,,,6.24111104012,167,81,3,1682.16314316,5,,,,,,,2017_Jul_05_1445,59.8605638245,DRL_task,1,100,
2,0,2,0,,,9.61005997658,168,82,3,1691.77323413,5,,,,,,,2017_Jul_05_1445,59.8605638245,DRL_task,1,100,
2,0,2,0,,,7.3411450386,169,83,3,1699.11435509,5,,,,,,,2017_Jul_05_1445,59.8605638245,DRL_task,1,100,
2,0,2,0,,,5.80600786209,170,84,3,1704.92024803,5,,,,,,,2017_Jul_05_1445,59.8605638245,DRL_task,1,100,
2,0,2,0,,,5.95526409149,171,85,3,1710.87662601,5,,,,,,,2017_Jul_05_1445,59.8605638245,DRL_task,1,100,
2,0,2,0,,,7.19109201431,172,86,3,1718.06756902,5,,,,,,,2017_Jul_05_1445,59.8605638245,DRL_task,1,100,
2,0,2,0,,,5.02304697037,173,87,3,1723.08944917,5,,,,,,,2017_Jul_05_1445,59.8605638245,DRL_task,1,100,
2,0,2,0,,,4.33666491508,173,88,3,1727.42734408,5,,,,,,,2017_Jul_05_1445,59.8605638245,DRL_task,1,100,
2,0,2,0,,,6.24000000954,174,89,3,1733.66723609,5,,,,,,,2017_Jul_05_1445,59.8605638245,DRL_task,1,100,
2,0,2,0,,,5.69065499306,175,90,3,1739.35657811,5,,,,,,,2017_Jul_05_1445,59.8605638245,DRL_task,1,100,
2,0,2,0,,,5.70463013649,176,91,3,1745.062639,5,,,,,,,2017_Jul_05_1445,59.8605638245,DRL_task,1,100,
2,0,2,0,,,5.60701584816,177,92,3,1750.66870499,5,,,,,,,2017_Jul_05_1445,59.8605638245,DRL_task,1,100,
2,0,2,0,,,2.43588614464,177,93,3,1753.10463905,5,,,,,,,2017_Jul_05_1445,59.8605638245,DRL_task,1,100,
2,0,2,0,,,6.34016895294,178,94,3,1759.44453406,5,,,,,,,2017_Jul_05_1445,59.8605638245,DRL_task,1,100,
2,0,2,0,,,4.48804593086,178,95,3,1763.932549,5,,,,,,,2017_Jul_05_1445,59.8605638245,DRL_task,1,100,
2,0,2,0,,,7.09063601494,179,96,3,1771.02350497,5,,,,,,,2017_Jul_05_1445,59.8605638245,DRL_task,1,100,
2,0,2,0,,,5.33905005455,180,97,3,1776.36249304,5,,,,,,,2017_Jul_05_1445,59.8605638245,DRL_task,1,100,
2,0,2,0,,,4.5202870369,180,98,3,1780.88374305,5,,,,,,,2017_Jul_05_1445,59.8605638245,DRL_task,1,100,
2,0,2,0,,,2.36925292015,180,99,3,1783.25295901,5,,,,,,,2017_Jul_05_1445,59.8605638245,DRL_task,1,100,
2,0,2,0,,,0.90225315094,180,100,3,1784.15388203,5,,,,,,,2017_Jul_05_1445,59.8605638245,DRL_task,1,100,
2,0,2,0,,,5.18854188919,181,101,3,1789.34293818,5,,,,,,,2017_Jul_05_1445,59.8605638245,DRL_task,1,100,
2,0,2,0,,,7.65807890892,182,102,3,1797.00095701,5,,,,,,,2017_Jul_05_1445,59.8605638245,DRL_task,1,100,
2,0,2,0,,,5.4225230217,183,103,3,1802.42311001,5,,,,,,,2017_Jul_05_1445,59.8605638245,DRL_task,1,100,
2,0,2,0,,,5.02181220055,184,104,3,1807.44525599,5,,,,,,,2017_Jul_05_1445,59.8605638245,DRL_task,1,100,
2,0,2,0,,,6.3891928196,185,105,3,1813.83521199,5,,,,,,,2017_Jul_05_1445,59.8605638245,DRL_task,1,100,
2,0,2,0,,,5.63909006119,186,106,3,1819.47451019,5,,,,,,,2017_Jul_05_1445,59.8605638245,DRL_task,1,100,
2,0,2,0,,,4.75483608246,186,107,3,1824.22917509,5,,,,,,,2017_Jul_05_1445,59.8605638245,DRL_task,1,100,
2,0,2,0,,,7.20760393143,187,108,3,1831.43721509,5,,,,,,,2017_Jul_05_1445,59.8605638245,DRL_task,1,100,
2,0,2,0,,,6.09146404266,188,109,3,1837.52704215,5,,,,,,,2017_Jul_05_1445,59.8605638245,DRL_task,1,100,
2,0,2,0,,,7.9733839035,189,110,3,1845.50207615,5,,,,,,,2017_Jul_05_1445,59.8605638245,DRL_task,1,100,
2,0,2,0,,,,,,,,,"['space', 'space', 'space', 'space', 'space', 'space', 'space', 'space', 'space', 'space', 'space', 'space', 'space', 'space', 'space', 'space', 'space', 'space', 'space', 'space', 'space', 'space', 'space', 'space', 'space', 'space', 'space', 'space', 'space', 'space', 'space', 'space', 'space', 'space', 'space', 'space', 'space', 'space', 'space', 'space', 'space', 'space', 'space', 'space', 'space', 'space', 'space', 'space', 'space', 'space', 'space', 'space', 'space', 'space', 'space', 'space', 'space', 'space', 'space', 'space', 'space', 'space', 'space', 'space', 'space', 'space', 'space', 'space', 'space', 'space', 'space', 'space', 'space', 'space', 'space', 'space', 'space', 'space', 'space', 'space', 'space', 'space', 'space', 'space', 'space', 'space', 'space', 'space', 'space', 'space', 'space', 'space', 'space', 'space', 'space', 'space', 'space', 'space', 'space', 'space', 'space', 'space', 'space', 'space', 'space', 'space', 'space', 'space', 'space', 'space']","[4.4609620571136475, 9.799946069717407, 14.238101959228516, 20.26113200187683, 24.832430124282837, 29.90448307991028, 35.66088891029358, 41.33332705497742, 46.355319023132324, 50.659661054611206, 55.281381130218506, 58.7864990234375, 65.3097231388092, 71.11588907241821, 75.76964402198792, 82.66156506538391, 86.83269095420837, 89.38539600372314, 91.28716897964478, 98.44527196884155, 102.61600995063782, 108.12066006660461, 112.97542190551758, 117.04640698432922, 124.62250304222107, 131.57852792739868, 136.73383808135986, 140.1892249584198, 145.9602451324463, 150.28160190582275, 154.92001008987427, 159.7584729194641, 167.1662290096283, 174.27535104751587, 180.76362299919128, 186.0872790813446, 194.81182193756104, 200.20248007774353, 205.0405719280243, 206.70766496658325, 209.66139912605286, 214.55069708824158, 221.2577109336853, 226.58001613616943, 231.55212807655334, 237.123202085495, 241.67963910102844, 246.25076007843018, 251.77316403388977, 256.7618999481201, 261.63262605667114, 266.95455598831177, 273.5294201374054, 281.47120213508606, 286.15968894958496, 291.4638919830322, 296.15320801734924, 302.359983921051, 310.5675320625305, 315.5726900100708, 320.4123899936676, 326.90113592147827, 333.47608709335327, 339.31547713279724, 343.1701009273529, 352.99652004241943, 359.13515400886536, 363.84154891967773, 370.4983940124512, 376.0709390640259, 382.1941659450531, 387.5163540840149, 392.57166600227356, 397.22665190696716, 401.96383810043335, 407.1693730354309, 413.54398012161255, 420.58445596694946, 424.70574402809143, 429.3927090167999, 435.6338200569153, 445.24388003349304, 452.5850250720978, 458.39103293418884, 464.34629702568054, 471.5373890399933, 476.5604360103607, 480.89710092544556, 487.1371009349823, 492.82775592803955, 498.5323860645294, 504.1394019126892, 506.57528805732727, 512.9154570102692, 517.4035029411316, 524.49413895607, 529.8331890106201, 534.3534760475159, 536.7227289676666, 537.6249821186066, 542.8135240077972, 550.4716029167175, 555.8941259384155, 560.9159381389618, 567.3051309585571, 572.9442210197449, 577.6990571022034, 584.9066610336304, 590.998125076294, 598.9715089797974]",space,5.29034805298,,,2017_Jul_05_1445,59.8605638245,DRL_task,1,100,
3,0,3,0,,,5.04705190659,190,1,4,1858.08198619,5,,,,,,,2017_Jul_05_1445,59.8605638245,DRL_task,1,100,
3,0,3,0,,,5.63819313049,191,2,4,1863.72115302,5,,,,,,,2017_Jul_05_1445,59.8605638245,DRL_task,1,100,
3,0,3,0,,,5.507188797,192,3,4,1869.22716808,5,,,,,,,2017_Jul_05_1445,59.8605638245,DRL_task,1,100,
3,0,3,0,,,3.4188811779,192,4,4,1872.64724708,5,,,,,,,2017_Jul_05_1445,59.8605638245,DRL_task,1,100,
3,0,3,0,,,4.98844003677,192,5,4,1877.63603806,5,,,,,,,2017_Jul_05_1445,59.8605638245,DRL_task,1,100,
3,0,3,0,,,6.64046192169,193,6,4,1884.27619815,5,,,,,,,2017_Jul_05_1445,59.8605638245,DRL_task,1,100,
3,0,3,0,,,4.80612587929,193,7,4,1889.08138704,5,,,,,,,2017_Jul_05_1445,59.8605638245,DRL_task,1,100,
3,0,3,0,,,3.58752703667,193,8,4,1892.66856217,5,,,,,,,2017_Jul_05_1445,59.8605638245,DRL_task,1,100,
3,0,3,0,,,5.28854608536,194,9,4,1897.97410202,5,,,,,,,2017_Jul_05_1445,59.8605638245,DRL_task,1,100,
3,0,3,0,,,6.37227106094,195,10,4,1904.33067703,5,,,,,,,2017_Jul_05_1445,59.8605638245,DRL_task,1,100,
3,0,3,0,,,4.53815078735,195,11,4,1908.86871719,5,,,,,,,2017_Jul_05_1445,59.8605638245,DRL_task,1,100,
3,0,3,0,,,4.15565514565,195,12,4,1913.02316809,5,,,,,,,2017_Jul_05_1445,59.8605638245,DRL_task,1,100,
3,0,3,0,,,6.45681786537,196,13,4,1919.48000312,5,,,,,,,2017_Jul_05_1445,59.8605638245,DRL_task,1,100,
3,0,3,0,,,4.8718111515,196,14,4,1924.35181308,5,,,,,,,2017_Jul_05_1445,59.8605638245,DRL_task,1,100,
3,0,3,0,,,6.72366690636,197,15,4,1931.07570601,5,,,,,,,2017_Jul_05_1445,59.8605638245,DRL_task,1,100,
3,0,3,0,,,2.33610296249,197,16,4,1933.41151905,5,,,,,,,2017_Jul_05_1445,59.8605638245,DRL_task,1,100,
3,0,3,0,,,6.28868913651,198,17,4,1939.70134711,5,,,,,,,2017_Jul_05_1445,59.8605638245,DRL_task,1,100,
3,0,3,0,,,7.50757098198,199,18,4,1947.20946717,5,,,,,,,2017_Jul_05_1445,59.8605638245,DRL_task,1,100,
3,0,3,0,,,4.93976688385,199,19,4,1952.1479671,5,,,,,,,2017_Jul_05_1445,59.8605638245,DRL_task,1,100,
3,0,3,0,,,7.92505311966,200,20,4,1960.07293105,5,,,,,,,2017_Jul_05_1445,59.8605638245,DRL_task,1,100,
3,0,3,0,,,5.50467205048,201,21,4,1965.57877517,5,,,,,,,2017_Jul_05_1445,59.8605638245,DRL_task,1,100,
3,0,3,0,,,4.22236895561,201,22,4,1969.79969907,5,,,,,,,2017_Jul_05_1445,59.8605638245,DRL_task,1,100,
3,0,3,0,,,4.80384397507,201,23,4,1974.60475111,5,,,,,,,2017_Jul_05_1445,59.8605638245,DRL_task,1,100,
3,0,3,0,,,4.25428700447,201,24,4,1978.85943103,5,,,,,,,2017_Jul_05_1445,59.8605638245,DRL_task,1,100,
3,0,3,0,,,6.64053297043,202,25,4,1985.49948502,5,,,,,,,2017_Jul_05_1445,59.8605638245,DRL_task,1,100,
3,0,3,0,,,5.34010195732,203,26,4,1990.83878016,5,,,,,,,2017_Jul_05_1445,59.8605638245,DRL_task,1,100,
3,0,3,0,,,5.05437111855,204,27,4,1995.89389896,5,,,,,,,2017_Jul_05_1445,59.8605638245,DRL_task,1,100,
3,0,3,0,,,5.22197890282,205,28,4,2001.1161232,5,,,,,,,2017_Jul_05_1445,59.8605638245,DRL_task,1,100,
3,0,3,0,,,4.57148814201,205,29,4,2005.687644,5,,,,,,,2017_Jul_05_1445,59.8605638245,DRL_task,1,100,
3,0,3,0,,,6.64022088051,206,30,4,2012.3281312,5,,,,,,,2017_Jul_05_1445,59.8605638245,DRL_task,1,100,
3,0,3,0,,,8.10861492157,207,31,4,2020.43673515,5,,,,,,,2017_Jul_05_1445,59.8605638245,DRL_task,1,100,
3,0,3,0,,,4.50624918938,207,32,4,2024.95814204,5,,,,,,,2017_Jul_05_1445,59.8605638245,DRL_task,1,100,
3,0,3,0,,,5.08726382256,208,33,4,2030.02994514,5,,,,,,,2017_Jul_05_1445,59.8605638245,DRL_task,1,100,
3,0,3,0,,,5.12304997444,209,34,4,2035.15216899,5,,,,,,,2017_Jul_05_1445,59.8605638245,DRL_task,1,100,
3,0,3,0,,,4.47026205063,209,35,4,2039.62354016,5,,,,,,,2017_Jul_05_1445,59.8605638245,DRL_task,1,100,
3,0,3,0,,,5.20569109917,210,36,4,2044.8289392,5,,,,,,,2017_Jul_05_1445,59.8605638245,DRL_task,1,100,
3,0,3,0,,,1.18440485001,210,37,4,2046.01364017,5,,,,,,,2017_Jul_05_1445,59.8605638245,DRL_task,1,100,
3,0,3,0,,,3.75512218475,210,38,4,2049.76762009,5,,,,,,,2017_Jul_05_1445,59.8605638245,DRL_task,1,100,
3,0,3,0,,,8.22432184219,211,39,4,2057.99279118,5,,,,,,,2017_Jul_05_1445,59.8605638245,DRL_task,1,100,
3,0,3,0,,,5.2567820549,212,40,4,2063.24831009,5,,,,,,,2017_Jul_05_1445,59.8605638245,DRL_task,1,100,
3,0,3,0,,,5.15407896042,213,41,4,2068.40395308,5,,,,,,,2017_Jul_05_1445,59.8605638245,DRL_task,1,100,
3,0,3,0,,,2.50276494026,213,42,4,2070.9063952,5,,,,,,,2017_Jul_05_1445,59.8605638245,DRL_task,1,100,
3,0,3,0,,,1.75168800354,213,43,4,2072.65844607,5,,,,,,,2017_Jul_05_1445,59.8605638245,DRL_task,1,100,
3,0,3,0,,,3.75567913055,213,44,4,2076.41236901,5,,,,,,,2017_Jul_05_1445,59.8605638245,DRL_task,1,100,
3,0,3,0,,,6.43981695175,214,45,4,2082.85226107,5,,,,,,,2017_Jul_05_1445,59.8605638245,DRL_task,1,100,
3,0,3,0,,,5.03719997406,215,46,4,2087.89119816,5,,,,,,,2017_Jul_05_1445,59.8605638245,DRL_task,1,100,
3,0,3,0,,,4.67197299004,215,47,4,2092.56251717,5,,,,,,,2017_Jul_05_1445,59.8605638245,DRL_task,1,100,
3,0,3,0,,,0.0830631256104,215,48,4,2092.64617515,5,,,,,,,2017_Jul_05_1445,59.8605638245,DRL_task,1,100,
3,0,3,0,,,0.385185956955,215,49,4,2093.04645705,5,,,,,,,2017_Jul_05_1445,59.8605638245,DRL_task,1,100,
3,0,3,0,,,7.74147796631,216,50,4,2100.77141714,5,,,,,,,2017_Jul_05_1445,59.8605638245,DRL_task,1,100,
3,0,3,0,,,5.204226017,217,51,4,2105.97667503,5,,,,,,,2017_Jul_05_1445,59.8605638245,DRL_task,1,100,
3,0,3,0,,,5.32347607613,218,52,4,2111.29916716,5,,,,,,,2017_Jul_05_1445,59.8605638245,DRL_task,1,100,
3,0,3,0,,,7.84041595459,219,53,4,2119.14054799,5,,,,,,,2017_Jul_05_1445,59.8605638245,DRL_task,1,100,
3,0,3,0,,,4.25429606438,219,54,4,2123.39522314,5,,,,,,,2017_Jul_05_1445,59.8605638245,DRL_task,1,100,
3,0,3,0,,,5.65742778778,220,55,4,2129.05109906,5,,,,,,,2017_Jul_05_1445,59.8605638245,DRL_task,1,100,
3,0,3,0,,,5.52247405052,221,56,4,2134.57356119,5,,,,,,,2017_Jul_05_1445,59.8605638245,DRL_task,1,100,
3,0,3,0,,,5.88814401627,222,57,4,2140.46333098,5,,,,,,,2017_Jul_05_1445,59.8605638245,DRL_task,1,100,
3,0,3,0,,,4.15571904182,222,58,4,2144.61769319,5,,,,,,,2017_Jul_05_1445,59.8605638245,DRL_task,1,100,
3,0,3,0,,,5.37137103081,223,59,4,2150.00653005,5,,,,,,,2017_Jul_05_1445,59.8605638245,DRL_task,1,100,
3,0,3,0,,,6.47433686256,224,60,4,2156.46348906,5,,,,,,,2017_Jul_05_1445,59.8605638245,DRL_task,1,100,
3,0,3,0,,,5.77292919159,225,61,4,2162.236063,5,,,,,,,2017_Jul_05_1445,59.8605638245,DRL_task,1,100,
3,0,3,0,,,5.28755903244,226,62,4,2167.52522612,5,,,,,,,2017_Jul_05_1445,59.8605638245,DRL_task,1,100,
3,0,3,0,,,4.17104291916,226,63,4,2171.6962471,5,,,,,,,2017_Jul_05_1445,59.8605638245,DRL_task,1,100,
3,0,3,0,,,5.37361693382,227,64,4,2177.06858015,5,,,,,,,2017_Jul_05_1445,59.8605638245,DRL_task,1,100,
3,0,3,0,,,7.82543992996,228,65,4,2184.89334202,5,,,,,,,2017_Jul_05_1445,59.8605638245,DRL_task,1,100,
3,0,3,0,,,6.22146320343,229,66,4,2191.11679411,5,,,,,,,2017_Jul_05_1445,59.8605638245,DRL_task,1,100,
3,0,3,0,,,4.53966593742,229,67,4,2195.65471101,5,,,,,,,2017_Jul_05_1445,59.8605638245,DRL_task,1,100,
3,0,3,0,,,6.25509786606,230,68,4,2201.91145301,5,,,,,,,2017_Jul_05_1445,59.8605638245,DRL_task,1,100,
3,0,3,0,,,3.93861103058,230,69,4,2205.84893513,5,,,,,,,2017_Jul_05_1445,59.8605638245,DRL_task,1,100,
3,0,3,0,,,5.9717400074,231,70,4,2211.82151008,5,,,,,,,2017_Jul_05_1445,59.8605638245,DRL_task,1,100,
3,0,3,0,,,5.90757417679,232,71,4,2217.72791719,5,,,,,,,2017_Jul_05_1445,59.8605638245,DRL_task,1,100,
3,0,3,0,,,5.62256598473,233,72,4,2223.35069203,5,,,,,,,2017_Jul_05_1445,59.8605638245,DRL_task,1,100,
3,0,3,0,,,5.05416798592,234,73,4,2228.40580797,5,,,,,,,2017_Jul_05_1445,59.8605638245,DRL_task,1,100,
3,0,3,0,,,4.7717218399,234,74,4,2233.17738605,5,,,,,,,2017_Jul_05_1445,59.8605638245,DRL_task,1,100,
3,0,3,0,,,5.95740413666,235,75,4,2239.13405299,5,,,,,,,2017_Jul_05_1445,59.8605638245,DRL_task,1,100,
3,0,3,0,,,6.25673103333,236,76,4,2245.39051509,5,,,,,,,2017_Jul_05_1445,59.8605638245,DRL_task,1,100,
3,0,3,0,,,5.45459794998,237,77,4,2250.84621501,5,,,,,,,2017_Jul_05_1445,59.8605638245,DRL_task,1,100,
3,0,3,0,,,5.77390098572,238,78,4,2256.61899614,5,,,,,,,2017_Jul_05_1445,59.8605638245,DRL_task,1,100,
3,0,3,0,,,3.2186589241,238,79,4,2259.839149,5,,,,,,,2017_Jul_05_1445,59.8605638245,DRL_task,1,100,
3,0,3,0,,,7.22453403473,239,80,4,2267.06335998,5,,,,,,,2017_Jul_05_1445,59.8605638245,DRL_task,1,100,
3,0,3,0,,,5.24037098885,240,81,4,2272.31889606,5,,,,,,,2017_Jul_05_1445,59.8605638245,DRL_task,1,100,
3,0,3,0,,,4.63690805435,240,82,4,2276.94041014,5,,,,,,,2017_Jul_05_1445,59.8605638245,DRL_task,1,100,
3,0,3,0,,,5.28975892067,241,83,4,2282.22947907,5,,,,,,,2017_Jul_05_1445,59.8605638245,DRL_task,1,100,
3,0,3,0,,,3.55273509026,241,84,4,2285.783113,5,,,,,,,2017_Jul_05_1445,59.8605638245,DRL_task,1,100,
3,0,3,0,,,6.79043006897,242,85,4,2292.57372999,5,,,,,,,2017_Jul_05_1445,59.8605638245,DRL_task,1,100,
3,0,3,0,,,3.87078285217,242,86,4,2296.44437099,5,,,,,,,2017_Jul_05_1445,59.8605638245,DRL_task,1,100,
3,0,3,0,,,5.00660991669,243,87,4,2301.44969511,5,,,,,,,2017_Jul_05_1445,59.8605638245,DRL_task,1,100,
3,0,3,0,,,6.10500502586,244,88,4,2307.55598617,5,,,,,,,2017_Jul_05_1445,59.8605638245,DRL_task,1,100,
3,0,3,0,,,6.44005608559,245,89,4,2314.01308799,5,,,,,,,2017_Jul_05_1445,59.8605638245,DRL_task,1,100,
3,0,3,0,,,6.07426190376,246,90,4,2320.06939816,5,,,,,,,2017_Jul_05_1445,59.8605638245,DRL_task,1,100,
3,0,3,0,,,4.6035900116,246,91,4,2324.67425513,5,,,,,,,2017_Jul_05_1445,59.8605638245,DRL_task,1,100,
3,0,3,0,,,5.58957314491,247,92,4,2330.26355505,5,,,,,,,2017_Jul_05_1445,59.8605638245,DRL_task,1,100,
3,0,3,0,,,5.54003596306,248,93,4,2335.80264211,5,,,,,,,2017_Jul_05_1445,59.8605638245,DRL_task,1,100,
3,0,3,0,,,5.52165389061,249,94,4,2341.32503819,5,,,,,,,2017_Jul_05_1445,59.8605638245,DRL_task,1,100,
3,0,3,0,,,4.63834118843,249,95,4,2345.97997117,5,,,,,,,2017_Jul_05_1445,59.8605638245,DRL_task,1,100,
3,0,3,0,,,5.48882293701,250,96,4,2351.45251608,5,,,,,,,2017_Jul_05_1445,59.8605638245,DRL_task,1,100,
3,0,3,0,,,15.5008759499,251,97,4,2366.96884608,5,,,,,,,2017_Jul_05_1445,59.8605638245,DRL_task,1,100,
3,0,3,0,,,5.48800802231,252,98,4,2372.44135809,5,,,,,,,2017_Jul_05_1445,59.8605638245,DRL_task,1,100,
3,0,3,0,,,6.05767202377,253,99,4,2378.497612,5,,,,,,,2017_Jul_05_1445,59.8605638245,DRL_task,1,100,
3,0,3,0,,,5.18749094009,254,100,4,2383.68649197,5,,,,,,,2017_Jul_05_1445,59.8605638245,DRL_task,1,100,
3,0,3,0,,,4.40575909615,254,101,4,2388.09124112,5,,,,,,,2017_Jul_05_1445,59.8605638245,DRL_task,1,100,
3,0,3,0,,,2.40268802643,254,102,4,2390.50977516,5,,,,,,,2017_Jul_05_1445,59.8605638245,DRL_task,1,100,
3,0,3,0,,,3.28553700447,254,103,4,2393.78049207,5,,,,,,,2017_Jul_05_1445,59.8605638245,DRL_task,1,100,
3,0,3,0,,,4.37252187729,254,104,4,2398.1516521,5,,,,,,,2017_Jul_05_1445,59.8605638245,DRL_task,1,100,
3,0,3,0,,,5.77277898788,255,105,4,2403.92454004,5,,,,,,,2017_Jul_05_1445,59.8605638245,DRL_task,1,100,
3,0,3,0,,,6.95606803894,256,106,4,2410.88190317,5,,,,,,,2017_Jul_05_1445,59.8605638245,DRL_task,1,100,
3,0,3,0,,,7.17548203468,257,107,4,2418.05594707,5,,,,,,,2017_Jul_05_1445,59.8605638245,DRL_task,1,100,
3,0,3,0,,,8.02511405945,258,108,4,2426.09789014,5,,,,,,,2017_Jul_05_1445,59.8605638245,DRL_task,1,100,
3,0,3,0,,,5.57147979736,259,109,4,2431.65359998,5,,,,,,,2017_Jul_05_1445,59.8605638245,DRL_task,1,100,
3,0,3,0,,,4.537981987,259,110,4,2436.19170117,5,,,,,,,2017_Jul_05_1445,59.8605638245,DRL_task,1,100,
3,0,3,0,,,3.67176914215,259,111,4,2439.8788321,5,,,,,,,2017_Jul_05_1445,59.8605638245,DRL_task,1,100,
3,0,3,0,,,4.92207193375,259,112,4,2444.80102611,5,,,,,,,2017_Jul_05_1445,59.8605638245,DRL_task,1,100,
3,0,3,0,,,6.27182507515,260,113,4,2451.05767512,5,,,,,,,2017_Jul_05_1445,59.8605638245,DRL_task,1,100,
3,0,3,0,,,,,,,,,"['space', 'space', 'space', 'space', 'space', 'space', 'space', 'space', 'space', 'space', 'space', 'space', 'space', 'space', 'space', 'space', 'space', 'space', 'space', 'space', 'space', 'space', 'space', 'space', 'space', 'space', 'space', 'space', 'space', 'space', 'space', 'space', 'space', 'space', 'space', 'space', 'space', 'space', 'space', 'space', 'space', 'space', 'space', 'space', 'space', 'space', 'space', 'space', 'space', 'space', 'space', 'space', 'space', 'space', 'space', 'space', 'space', 'space', 'space', 'space', 'space', 'space', 'space', 'space', 'space', 'space', 'space', 'space', 'space', 'space', 'space', 'space', 'space', 'space', 'space', 'space', 'space', 'space', 'space', 'space', 'space', 'space', 'space', 'space', 'space', 'space', 'space', 'space', 'space', 'space', 'space', 'space', 'space', 'space', 'space', 'space', 'space', 'space', 'space', 'space', 'space', 'space', 'space', 'space', 'space', 'space', 'space', 'space', 'space', 'space', 'space', 'space', 'space']","[5.047051906585693, 10.685245037078857, 16.192433834075928, 19.61131501197815, 24.59975504875183, 31.240216970443726, 36.046342849731445, 39.633869886398315, 44.92241597175598, 51.294687032699585, 55.8328378200531, 59.98849296569824, 66.44531083106995, 71.31712198257446, 78.04078888893127, 80.37689185142517, 86.6655809879303, 94.17315196990967, 99.11291885375977, 107.03797197341919, 112.54264402389526, 116.76501297950745, 121.56885695457458, 125.82314395904541, 132.46367692947388, 137.80377888679504, 142.85815000534058, 148.08012890815735, 152.6516170501709, 159.29183793067932, 167.40045285224915, 171.90670204162598, 176.99396586418152, 182.11701583862305, 186.5872778892517, 191.79296898841858, 192.97737383842468, 196.7324960231781, 204.9568178653717, 210.21359992027283, 215.36767888069153, 217.87044382095337, 219.6221318244934, 223.3778109550476, 229.81762790679932, 234.85482788085938, 239.52680087089539, 239.60986399650574, 239.9950499534607, 247.7365279197693, 252.94075393676758, 258.2642300128937, 266.1046459674835, 270.35894203186035, 276.0163698196411, 281.53884387016296, 287.42698788642883, 291.5827069282532, 296.95407795906067, 303.42841482162476, 309.2013440132141, 314.4889030456543, 318.65994596481323, 324.03356289863586, 331.859002828598, 338.0804660320282, 342.6201319694519, 348.87522983551025, 352.81384086608887, 358.7855808734894, 364.6931550502777, 370.31572103500366, 375.3698890209198, 380.1416108608246, 386.0990149974823, 392.3557460308075, 397.8103439807892, 403.58424496650696, 406.80290389060974, 414.02743792533875, 419.26780891418457, 423.9047169685364, 429.19447588920593, 432.74721097946167, 439.5376410484314, 443.40842390060425, 448.41503381729126, 454.5200388431549, 460.96009492874146, 467.0343568325043, 471.63794684410095, 477.2275199890137, 482.76755595207214, 488.2892098426819, 492.92755103111267, 498.4163739681244, 513.917249917984, 519.4052579402924, 525.4629299640656, 530.6504209041595, 535.0561800003052, 537.4588680267334, 540.7444050312042, 545.116926908493, 550.8897058963776, 557.845773935318, 565.0212559700012, 573.0463700294495, 578.6178498268127, 583.1558318138123, 586.8276009559631, 591.7496728897095, 598.021497964859]",space,3.53866195679,,,2017_Jul_05_1445,59.8605638245,DRL_task,1,100,
4,0,4,0,,,5.97841906548,261,1,5,2463.77098417,5,,,,,,,2017_Jul_05_1445,59.8605638245,DRL_task,1,100,
4,0,4,0,,,9.87720608711,262,2,5,2473.6478982,5,,,,,,,2017_Jul_05_1445,59.8605638245,DRL_task,1,100,
4,0,4,0,,,5.54009485245,263,3,5,2479.18706417,5,,,,,,,2017_Jul_05_1445,59.8605638245,DRL_task,1,100,
4,0,4,0,,,3.67040514946,263,4,5,2482.85778618,5,,,,,,,2017_Jul_05_1445,59.8605638245,DRL_task,1,100,
4,0,4,0,,,6.62272691727,264,5,5,2489.481457,5,,,,,,,2017_Jul_05_1445,59.8605638245,DRL_task,1,100,
4,0,4,0,,,4.45595812798,264,6,5,2493.95295119,5,,,,,,,2017_Jul_05_1445,59.8605638245,DRL_task,1,100,
4,0,4,0,,,7.2080719471,265,7,5,2501.16042519,5,,,,,,,2017_Jul_05_1445,59.8605638245,DRL_task,1,100,
4,0,4,0,,,4.95524287224,265,8,5,2506.11589503,5,,,,,,,2017_Jul_05_1445,59.8605638245,DRL_task,1,100,
4,0,4,0,,,9.55839300156,266,9,5,2515.65879512,5,,,,,,,2017_Jul_05_1445,59.8605638245,DRL_task,1,100,
4,0,4,0,,,9.67804908752,267,10,5,2525.35251999,5,,,,,,,2017_Jul_05_1445,59.8605638245,DRL_task,1,100,
4,0,4,0,,,6.15542697906,268,11,5,2531.49226403,5,,,,,,,2017_Jul_05_1445,59.8605638245,DRL_task,1,100,
4,0,4,0,,,5.5892059803,269,12,5,2537.08148408,5,,,,,,,2017_Jul_05_1445,59.8605638245,DRL_task,1,100,
4,0,4,0,,,5.03964996338,270,13,5,2542.13688111,5,,,,,,,2017_Jul_05_1445,59.8605638245,DRL_task,1,100,
4,0,4,0,,,5.93865799904,271,14,5,2548.07645798,5,,,,,,,2017_Jul_05_1445,59.8605638245,DRL_task,1,100,
4,0,4,0,,,5.79102110863,272,15,5,2553.86604714,5,,,,,,,2017_Jul_05_1445,59.8605638245,DRL_task,1,100,
4,0,4,0,,,4.63660502434,272,16,5,2558.48736,5,,,,,,,2017_Jul_05_1445,59.8605638245,DRL_task,1,100,
4,0,4,0,,,4.6379840374,272,17,5,2563.12560415,5,,,,,,,2017_Jul_05_1445,59.8605638245,DRL_task,1,100,
4,0,4,0,,,5.2391269207,273,18,5,2568.36451411,5,,,,,,,2017_Jul_05_1445,59.8605638245,DRL_task,1,100,
4,0,4,0,,,6.55672502518,274,19,5,2574.92158318,5,,,,,,,2017_Jul_05_1445,59.8605638245,DRL_task,1,100,
4,0,4,0,,,5.33889293671,275,20,5,2580.26053119,5,,,,,,,2017_Jul_05_1445,59.8605638245,DRL_task,1,100,
4,0,4,0,,,3.48712396622,275,21,5,2583.74739718,5,,,,,,,2017_Jul_05_1445,59.8605638245,DRL_task,1,100,
4,0,4,0,,,8.79255509377,276,22,5,2592.54013109,5,,,,,,,2017_Jul_05_1445,59.8605638245,DRL_task,1,100,
4,0,4,0,,,5.57271099091,277,23,5,2598.11269712,5,,,,,,,2017_Jul_05_1445,59.8605638245,DRL_task,1,100,
4,0,4,0,,,6.22311401367,278,24,5,2604.33596206,5,,,,,,,2017_Jul_05_1445,59.8605638245,DRL_task,1,100,
4,0,4,0,,,4.5226328373,278,25,5,2608.87407207,5,,,,,,,2017_Jul_05_1445,59.8605638245,DRL_task,1,100,
4,0,4,0,,,5.83967113495,279,26,5,2614.71357918,5,,,,,,,2017_Jul_05_1445,59.8605638245,DRL_task,1,100,
4,0,4,0,,,4.30326104164,279,27,5,2619.00120211,5,,,,,,,2017_Jul_05_1445,59.8605638245,DRL_task,1,100,
4,0,4,0,,,5.02169799805,280,28,5,2624.02319312,5,,,,,,,2017_Jul_05_1445,59.8605638245,DRL_task,1,100,
4,0,4,0,,,5.40603590012,281,29,5,2629.4456501,5,,,,,,,2017_Jul_05_1445,59.8605638245,DRL_task,1,100,
4,0,4,0,,,7.2743499279,282,30,5,2636.70326018,5,,,,,,,2017_Jul_05_1445,59.8605638245,DRL_task,1,100,
4,0,4,0,,,6.75672721863,283,31,5,2643.46043706,5,,,,,,,2017_Jul_05_1445,59.8605638245,DRL_task,1,100,
4,0,4,0,,,5.4404528141,284,32,5,2648.91616201,5,,,,,,,2017_Jul_05_1445,59.8605638245,DRL_task,1,100,
4,0,4,0,,,5.4558801651,285,33,5,2654.37195516,5,,,,,,,2017_Jul_05_1445,59.8605638245,DRL_task,1,100,
4,0,4,0,,,6.90600681305,286,34,5,2661.26266718,5,,,,,,,2017_Jul_05_1445,59.8605638245,DRL_task,1,100,
4,0,4,0,,,6.13978004456,287,35,5,2667.40248013,5,,,,,,,2017_Jul_05_1445,59.8605638245,DRL_task,1,100,
4,0,4,0,,,4.90517997742,287,36,5,2672.30763316,5,,,,,,,2017_Jul_05_1445,59.8605638245,DRL_task,1,100,
4,0,4,0,,,4.58923697472,287,37,5,2676.9127152,5,,,,,,,2017_Jul_05_1445,59.8605638245,DRL_task,1,100,
4,0,4,0,,,9.17541098595,288,38,5,2686.07203412,5,,,,,,,2017_Jul_05_1445,59.8605638245,DRL_task,1,100,
4,0,4,0,,,8.15845108032,289,39,5,2694.23082519,5,,,,,,,2017_Jul_05_1445,59.8605638245,DRL_task,1,100,
4,0,4,0,,,6.17337608337,290,40,5,2700.40380001,5,,,,,,,2017_Jul_05_1445,59.8605638245,DRL_task,1,100,
4,0,4,0,,,5.9738509655,291,41,5,2706.39365411,5,,,,,,,2017_Jul_05_1445,59.8605638245,DRL_task,1,100,
4,0,4,0,,,8.89308094978,292,42,5,2715.28642511,5,,,,,,,2017_Jul_05_1445,59.8605638245,DRL_task,1,100,
4,0,4,0,,,5.52122092247,293,43,5,2720.79194808,5,,,,,,,2017_Jul_05_1445,59.8605638245,DRL_task,1,100,
4,0,4,0,,,6.00743508339,294,44,5,2726.81504202,5,,,,,,,2017_Jul_05_1445,59.8605638245,DRL_task,1,100,
4,0,4,0,,,4.42005610466,294,45,5,2731.23653603,5,,,,,,,2017_Jul_05_1445,59.8605638245,DRL_task,1,100,
4,0,4,0,,,5.25700902939,295,46,5,2736.491956,5,,,,,,,2017_Jul_05_1445,59.8605638245,DRL_task,1,100,
4,0,4,0,,,4.92158579826,295,47,5,2741.41372705,5,,,,,,,2017_Jul_05_1445,59.8605638245,DRL_task,1,100,
4,0,4,0,,,6.13968110085,296,48,5,2747.55369902,5,,,,,,,2017_Jul_05_1445,59.8605638245,DRL_task,1,100,
4,0,4,0,,,6.72276496887,297,49,5,2754.26079512,5,,,,,,,2017_Jul_05_1445,59.8605638245,DRL_task,1,100,
4,0,4,0,,,4.82189798355,297,50,5,2759.09905505,5,,,,,,,2017_Jul_05_1445,59.8605638245,DRL_task,1,100,
4,0,4,0,,,5.89037203789,298,51,5,2764.98878598,5,,,,,,,2017_Jul_05_1445,59.8605638245,DRL_task,1,100,
4,0,4,0,,,5.28811001778,299,52,5,2770.260849,5,,,,,,,2017_Jul_05_1445,59.8605638245,DRL_task,1,100,
4,0,4,0,,,5.49017500877,300,53,5,2775.76674199,5,,,,,,,2017_Jul_05_1445,59.8605638245,DRL_task,1,100,
4,0,4,0,,,5.42264795303,301,54,5,2781.1892612,5,,,,,,,2017_Jul_05_1445,59.8605638245,DRL_task,1,100,
4,0,4,0,,,5.20416712761,302,55,5,2786.37781119,5,,,,,,,2017_Jul_05_1445,59.8605638245,DRL_task,1,100,
4,0,4,0,,,4.53926491737,302,56,5,2790.93278313,5,,,,,,,2017_Jul_05_1445,59.8605638245,DRL_task,1,100,
4,0,4,0,,,5.87263703346,303,57,5,2796.80570412,5,,,,,,,2017_Jul_05_1445,59.8605638245,DRL_task,1,100,
4,0,4,0,,,5.30556702614,304,58,5,2802.111377,5,,,,,,,2017_Jul_05_1445,59.8605638245,DRL_task,1,100,
4,0,4,0,,,4.60475802422,304,59,5,2806.71609306,5,,,,,,,2017_Jul_05_1445,59.8605638245,DRL_task,1,100,
4,0,4,0,,,6.32234692574,305,60,5,2813.02276301,5,,,,,,,2017_Jul_05_1445,59.8605638245,DRL_task,1,100,
4,0,4,0,,,5.97402596474,306,61,5,2819.01243114,5,,,,,,,2017_Jul_05_1445,59.8605638245,DRL_task,1,100,
4,0,4,0,,,5.32270312309,307,62,5,2824.33487511,5,,,,,,,2017_Jul_05_1445,59.8605638245,DRL_task,1,100,
4,0,4,0,,,1.91735386848,307,63,5,2826.25320601,5,,,,,,,2017_Jul_05_1445,59.8605638245,DRL_task,1,100,
4,0,4,0,,,3.33810400963,307,64,5,2829.59038019,5,,,,,,,2017_Jul_05_1445,59.8605638245,DRL_task,1,100,
4,0,4,0,,,5.57216095924,308,65,5,2835.16284418,5,,,,,,,2017_Jul_05_1445,59.8605638245,DRL_task,1,100,
4,0,4,0,,,5.40463900566,309,66,5,2840.55177498,5,,,,,,,2017_Jul_05_1445,59.8605638245,DRL_task,1,100,
4,0,4,0,,,4.10457897186,309,67,5,2844.67271614,5,,,,,,,2017_Jul_05_1445,59.8605638245,DRL_task,1,100,
4,0,4,0,,,3.78814196587,309,68,5,2848.46027613,5,,,,,,,2017_Jul_05_1445,59.8605638245,DRL_task,1,100,
4,0,4,0,,,5.53963017464,310,69,5,2853.99938917,5,,,,,,,2017_Jul_05_1445,59.8605638245,DRL_task,1,100,
4,0,4,0,,,4.50453591347,310,70,5,2858.50395918,5,,,,,,,2017_Jul_05_1445,59.8605638245,DRL_task,1,100,
4,0,4,0,,,4.63843107224,310,71,5,2863.14239001,5,,,,,,,2017_Jul_05_1445,59.8605638245,DRL_task,1,100,
4,0,4,0,,,5.35432600975,311,72,5,2868.49779105,5,,,,,,,2017_Jul_05_1445,59.8605638245,DRL_task,1,100,
4,0,4,0,,,4.12216496468,311,73,5,2872.61887097,5,,,,,,,2017_Jul_05_1445,59.8605638245,DRL_task,1,100,
4,0,4,0,,,4.33654689789,311,74,5,2876.9402101,5,,,,,,,2017_Jul_05_1445,59.8605638245,DRL_task,1,100,
4,0,4,0,,,4.2727291584,311,75,5,2881.22765899,5,,,,,,,2017_Jul_05_1445,59.8605638245,DRL_task,1,100,
4,0,4,0,,,5.4555618763,312,76,5,2886.68362498,5,,,,,,,2017_Jul_05_1445,59.8605638245,DRL_task,1,100,
4,0,4,0,,,3.88615512848,312,77,5,2890.55456209,5,,,,,,,2017_Jul_05_1445,59.8605638245,DRL_task,1,100,
4,0,4,0,,,3.5205988884,312,78,5,2894.09149599,5,,,,,,,2017_Jul_05_1445,59.8605638245,DRL_task,1,100,
4,0,4,0,,,4.40586590767,312,79,5,2898.49628305,5,,,,,,,2017_Jul_05_1445,59.8605638245,DRL_task,1,100,
4,0,4,0,,,7.0392870903,313,80,5,2905.53700614,5,,,,,,,2017_Jul_05_1445,59.8605638245,DRL_task,1,100,
4,0,4,0,,,4.73974204063,313,81,5,2910.27523708,5,,,,,,,2017_Jul_05_1445,59.8605638245,DRL_task,1,100,
4,0,4,0,,,4.53779196739,313,82,5,2914.81321502,5,,,,,,,2017_Jul_05_1445,59.8605638245,DRL_task,1,100,
4,0,4,0,,,5.38815999031,314,83,5,2920.20237803,5,,,,,,,2017_Jul_05_1445,59.8605638245,DRL_task,1,100,
4,0,4,0,,,5.97280192375,315,84,5,2926.17555118,5,,,,,,,2017_Jul_05_1445,59.8605638245,DRL_task,1,100,
4,0,4,0,,,4.45620012283,315,85,5,2930.630023,5,,,,,,,2017_Jul_05_1445,59.8605638245,DRL_task,1,100,
4,0,4,0,,,4.53825807571,315,86,5,2935.16813898,5,,,,,,,2017_Jul_05_1445,59.8605638245,DRL_task,1,100,
4,0,4,0,,,6.03948879242,316,87,5,2941.20806718,5,,,,,,,2017_Jul_05_1445,59.8605638245,DRL_task,1,100,
4,0,4,0,,,6.13974809647,317,88,5,2947.34782815,5,,,,,,,2017_Jul_05_1445,59.8605638245,DRL_task,1,100,
4,0,4,0,,,7.90700912476,318,89,5,2955.25595903,5,,,,,,,2017_Jul_05_1445,59.8605638245,DRL_task,1,100,
4,0,4,0,,,5.2402818203,319,90,5,2960.49485517,5,,,,,,,2017_Jul_05_1445,59.8605638245,DRL_task,1,100,
4,0,4,0,,,5.82273697853,320,91,5,2966.31766009,5,,,,,,,2017_Jul_05_1445,59.8605638245,DRL_task,1,100,
4,0,4,0,,,3.95394897461,320,92,5,2970.27158499,5,,,,,,,2017_Jul_05_1445,59.8605638245,DRL_task,1,100,
4,0,4,0,,,5.20550823212,321,93,5,2975.47749209,5,,,,,,,2017_Jul_05_1445,59.8605638245,DRL_task,1,100,
4,0,4,0,,,4.90389990807,321,94,5,2980.36596918,5,,,,,,,2017_Jul_05_1445,59.8605638245,DRL_task,1,100,
4,0,4,0,,,5.6896879673,322,95,5,2986.07217717,5,,,,,,,2017_Jul_05_1445,59.8605638245,DRL_task,1,100,
4,0,4,0,,,5.34022307396,323,96,5,2991.41075897,5,,,,,,,2017_Jul_05_1445,59.8605638245,DRL_task,1,100,
4,0,4,0,,,4.95361495018,323,97,5,2996.36630297,5,,,,,,,2017_Jul_05_1445,59.8605638245,DRL_task,1,100,
4,0,4,0,,,5.62415099144,324,98,5,3001.98879313,5,,,,,,,2017_Jul_05_1445,59.8605638245,DRL_task,1,100,
4,0,4,0,,,3.60363197327,324,99,5,3005.59254503,5,,,,,,,2017_Jul_05_1445,59.8605638245,DRL_task,1,100,
4,0,4,0,,,9.22625398636,325,100,5,3014.81895399,5,,,,,,,2017_Jul_05_1445,59.8605638245,DRL_task,1,100,
4,0,4,0,,,7.10780000687,326,101,5,3021.92647815,5,,,,,,,2017_Jul_05_1445,59.8605638245,DRL_task,1,100,
4,0,4,0,,,6.77390694618,327,102,5,3028.70002508,5,,,,,,,2017_Jul_05_1445,59.8605638245,DRL_task,1,100,
4,0,4,0,,,6.43855905533,328,103,5,3035.14021397,5,,,,,,,2017_Jul_05_1445,59.8605638245,DRL_task,1,100,
4,0,4,0,,,5.25701713562,329,104,5,3040.39579415,5,,,,,,,2017_Jul_05_1445,59.8605638245,DRL_task,1,100,
4,0,4,0,,,5.05395889282,330,105,5,3045.45108509,5,,,,,,,2017_Jul_05_1445,59.8605638245,DRL_task,1,100,
4,0,4,0,,,3.50489401817,330,106,5,3048.95494914,5,,,,,,,2017_Jul_05_1445,59.8605638245,DRL_task,1,100,
4,0,4,0,,,3.77112698555,330,107,5,3052.72549319,5,,,,,,,2017_Jul_05_1445,59.8605638245,DRL_task,1,100,
4,0,4,0,,,,,,,,,"['space', 'space', 'space', 'space', 'space', 'space', 'space', 'space', 'space', 'space', 'space', 'space', 'space', 'space', 'space', 'space', 'space', 'space', 'space', 'space', 'space', 'space', 'space', 'space', 'space', 'space', 'space', 'space', 'space', 'space', 'space', 'space', 'space', 'space', 'space', 'space', 'space', 'space', 'space', 'space', 'space', 'space', 'space', 'space', 'space', 'space', 'space', 'space', 'space', 'space', 'space', 'space', 'space', 'space', 'space', 'space', 'space', 'space', 'space', 'space', 'space', 'space', 'space', 'space', 'space', 'space', 'space', 'space', 'space', 'space', 'space', 'space', 'space', 'space', 'space', 'space', 'space', 'space', 'space', 'space', 'space', 'space', 'space', 'space', 'space', 'space', 'space', 'space', 'space', 'space', 'space', 'space', 'space', 'space', 'space', 'space', 'space', 'space', 'space', 'space', 'space', 'space', 'space', 'space', 'space', 'space', 'space']","[5.978419065475464, 15.85562515258789, 21.3957200050354, 25.06612515449524, 31.688852071762085, 36.14481019973755, 43.35288214683533, 48.308125019073486, 57.86651802062988, 67.5445671081543, 73.69999408721924, 79.28920006752014, 84.32885003089905, 90.26750802993774, 96.05852913856506, 100.69513416290283, 105.33311820030212, 110.5722451210022, 117.1289701461792, 122.46786308288574, 125.95498704910278, 134.74754214286804, 140.3202531337738, 146.54336714744568, 151.0659999847412, 156.90567111968994, 161.20893216133118, 166.23063015937805, 171.63666605949402, 178.91101598739624, 185.66774320602417, 191.10819602012634, 196.56407618522644, 203.47008299827576, 209.60986304283142, 214.5150430202484, 219.1042799949646, 228.27969098091125, 236.43814206123352, 242.61151814460754, 248.58536911010742, 257.47845005989075, 262.99967098236084, 269.0071060657501, 273.42716217041016, 278.6841711997986, 283.60575699806213, 289.74543809890747, 296.46820306777954, 301.29010105133057, 307.18047308921814, 312.46858310699463, 317.95875811576843, 323.3814060688019, 328.58557319641113, 333.1248381137848, 338.9974751472473, 344.3030421733856, 348.9078001976013, 355.2301471233368, 361.20417308807373, 366.5268762111664, 368.4442300796509, 371.7823340892792, 377.35449504852295, 382.75913405418396, 386.86371302604675, 390.65185499191284, 396.1914851665497, 400.6960210800171, 405.3344521522522, 410.68877816200256, 414.81094312667847, 419.14749002456665, 423.42021918296814, 428.87578105926514, 432.76193618774414, 436.28253507614136, 440.6884009838104, 447.72768807411194, 452.4674301147461, 457.00522208213806, 462.39338207244873, 468.36618399620056, 472.8223841190338, 477.3606421947479, 483.40013098716736, 489.5398790836334, 497.4468882083893, 502.6871700286865, 508.5099070072174, 512.4638559818268, 517.6693642139435, 522.5732641220093, 528.2629520893097, 533.603175163269, 538.5567901134491, 544.1809411048889, 547.7845730781555, 557.0108270645142, 564.1186270713806, 570.8925340175629, 577.3310930728912, 582.5881102085114, 587.6420691013336, 591.1469631195068, 594.9180901050568]",space,18.7708630562,,,2017_Jul_05_1445,59.8605638245,DRL_task,1,100,
5,0,5,0,,,3.78301215172,330,1,6,3081.57255316,5,,,,,,,2017_Jul_05_1445,59.8605638245,DRL_task,1,100,
5,0,5,0,,,5.48757982254,331,2,6,3087.06186104,5,,,,,,,2017_Jul_05_1445,59.8605638245,DRL_task,1,100,
5,0,5,0,,,5.40585112572,332,3,6,3092.46717811,5,,,,,,,2017_Jul_05_1445,59.8605638245,DRL_task,1,100,
5,0,5,0,,,4.60479903221,332,4,6,3097.07229805,5,,,,,,,2017_Jul_05_1445,59.8605638245,DRL_task,1,100,
5,0,5,0,,,5.1889128685,333,5,6,3102.26104712,5,,,,,,,2017_Jul_05_1445,59.8605638245,DRL_task,1,100,
5,0,5,0,,,5.79040813446,334,6,6,3108.05063319,5,,,,,,,2017_Jul_05_1445,59.8605638245,DRL_task,1,100,
5,0,5,0,,,5.73957705498,335,7,6,3113.78983712,5,,,,,,,2017_Jul_05_1445,59.8605638245,DRL_task,1,100,
5,0,5,0,,,6.08966493607,336,8,6,3119.87979102,5,,,,,,,2017_Jul_05_1445,59.8605638245,DRL_task,1,100,
5,0,5,0,,,4.16998195648,336,9,6,3124.05071211,5,,,,,,,2017_Jul_05_1445,59.8605638245,DRL_task,1,100,
5,0,5,0,,,6.20649504662,337,10,6,3130.25724912,5,,,,,,,2017_Jul_05_1445,59.8605638245,DRL_task,1,100,
5,0,5,0,,,9.99488592148,338,11,6,3140.25086808,5,,,,,,,2017_Jul_05_1445,59.8605638245,DRL_task,1,100,
5,0,5,0,,,5.4395570755,339,12,6,3145.69015598,5,,,,,,,2017_Jul_05_1445,59.8605638245,DRL_task,1,100,
5,0,5,0,,,4.73790287971,339,13,6,3150.4283061,5,,,,,,,2017_Jul_05_1445,59.8605638245,DRL_task,1,100,
5,0,5,0,,,5.70637917519,340,14,6,3156.13464904,5,,,,,,,2017_Jul_05_1445,59.8605638245,DRL_task,1,100,
5,0,5,0,,,5.98928689957,341,15,6,3162.12434101,5,,,,,,,2017_Jul_05_1445,59.8605638245,DRL_task,1,100,
5,0,5,0,,,5.58803606033,342,16,6,3167.71366811,5,,,,,,,2017_Jul_05_1445,59.8605638245,DRL_task,1,100,
5,0,5,0,,,5.17383790016,343,17,6,3172.88552809,5,,,,,,,2017_Jul_05_1445,59.8605638245,DRL_task,1,100,
5,0,5,0,,,4.67112803459,343,18,6,3177.55711913,5,,,,,,,2017_Jul_05_1445,59.8605638245,DRL_task,1,100,
5,0,5,0,,,3.87104892731,343,19,6,3181.42792416,5,,,,,,,2017_Jul_05_1445,59.8605638245,DRL_task,1,100,
5,0,5,0,,,5.30526018143,344,20,6,3186.7337482,5,,,,,,,2017_Jul_05_1445,59.8605638245,DRL_task,1,100,
5,0,5,0,,,3.50262188911,344,21,6,3190.23714304,5,,,,,,,2017_Jul_05_1445,59.8605638245,DRL_task,1,100,
5,0,5,0,,,4.98862099648,344,22,6,3195.22579098,5,,,,,,,2017_Jul_05_1445,59.8605638245,DRL_task,1,100,
5,0,5,0,,,5.52240395546,345,23,6,3200.74824405,5,,,,,,,2017_Jul_05_1445,59.8605638245,DRL_task,1,100,
5,0,5,0,,,6.14108300209,346,24,6,3206.88814616,5,,,,,,,2017_Jul_05_1445,59.8605638245,DRL_task,1,100,
5,0,5,0,,,5.23747706413,347,25,6,3212.1271112,5,,,,,,,2017_Jul_05_1445,59.8605638245,DRL_task,1,100,
5,0,5,0,,,4.73963499069,347,26,6,3216.86542296,5,,,,,,,2017_Jul_05_1445,59.8605638245,DRL_task,1,100,
5,0,5,0,,,6.47361588478,348,27,6,3223.33898711,5,,,,,,,2017_Jul_05_1445,59.8605638245,DRL_task,1,100,
5,0,5,0,,,5.27209806442,349,28,6,3228.61121511,5,,,,,,,2017_Jul_05_1445,59.8605638245,DRL_task,1,100,
5,0,5,0,,,4.93724799156,349,29,6,3233.54975009,5,,,,,,,2017_Jul_05_1445,59.8605638245,DRL_task,1,100,
5,0,5,0,,,5.60728812218,350,30,6,3239.15566516,5,,,,,,,2017_Jul_05_1445,59.8605638245,DRL_task,1,100,
5,0,5,0,,,5.5712928772,351,31,6,3244.72796798,5,,,,,,,2017_Jul_05_1445,59.8605638245,DRL_task,1,100,
5,0,5,0,,,7.24215102196,352,32,6,3251.96932411,5,,,,,,,2017_Jul_05_1445,59.8605638245,DRL_task,1,100,
5,0,5,0,,,6.75743508339,353,33,6,3258.72615814,5,,,,,,,2017_Jul_05_1445,59.8605638245,DRL_task,1,100,
5,0,5,0,,,5.40424799919,354,34,6,3264.13176799,5,,,,,,,2017_Jul_05_1445,59.8605638245,DRL_task,1,100,
5,0,5,0,,,8.22484302521,355,35,6,3272.35679317,5,,,,,,,2017_Jul_05_1445,59.8605638245,DRL_task,1,100,
5,0,5,0,,,2.60453081131,355,36,6,3274.96010303,5,,,,,,,2017_Jul_05_1445,59.8605638245,DRL_task,1,100,
5,0,5,0,,,5.17091107368,356,37,6,3280.13202214,5,,,,,,,2017_Jul_05_1445,59.8605638245,DRL_task,1,100,
5,0,5,0,,,5.67393994331,357,38,6,3285.80472803,5,,,,,,,2017_Jul_05_1445,59.8605638245,DRL_task,1,100,
5,0,5,0,,,5.2387611866,358,39,6,3291.04369402,5,,,,,,,2017_Jul_05_1445,59.8605638245,DRL_task,1,100,
5,0,5,0,,,4.0028488636,358,40,6,3295.04795814,5,,,,,,,2017_Jul_05_1445,59.8605638245,DRL_task,1,100,
5,0,5,0,,,4.00568413734,358,41,6,3299.05225015,5,,,,,,,2017_Jul_05_1445,59.8605638245,DRL_task,1,100,
5,0,5,0,,,12.1294248104,359,42,6,3311.18143916,5,,,,,,,2017_Jul_05_1445,59.8605638245,DRL_task,1,100,
5,0,5,0,,,7.5064291954,360,43,6,3318.68951607,5,,,,,,,2017_Jul_05_1445,59.8605638245,DRL_task,1,100,
5,0,5,0,,,4.80506086349,360,44,6,3323.494591,5,,,,,,,2017_Jul_05_1445,59.8605638245,DRL_task,1,100,
5,0,5,0,,,5.14024996758,361,45,6,3328.63344002,5,,,,,,,2017_Jul_05_1445,59.8605638245,DRL_task,1,100,
5,0,5,0,,,5.47219395638,362,46,6,3334.10577416,5,,,,,,,2017_Jul_05_1445,59.8605638245,DRL_task,1,100,
5,0,5,0,,,2.53601908684,362,47,6,3336.64177299,5,,,,,,,2017_Jul_05_1445,59.8605638245,DRL_task,1,100,
5,0,5,0,,,1.46838712692,362,48,6,3338.10997009,5,,,,,,,2017_Jul_05_1445,59.8605638245,DRL_task,1,100,
5,0,5,0,,,4.57023000717,362,49,6,3342.68129516,5,,,,,,,2017_Jul_05_1445,59.8605638245,DRL_task,1,100,
5,0,5,0,,,5.34047079086,363,50,6,3348.020298,5,,,,,,,2017_Jul_05_1445,59.8605638245,DRL_task,1,100,
5,0,5,0,,,4.83675408363,363,51,6,3352.85885406,5,,,,,,,2017_Jul_05_1445,59.8605638245,DRL_task,1,100,
5,0,5,0,,,4.97337508202,363,52,6,3357.83068013,5,,,,,,,2017_Jul_05_1445,59.8605638245,DRL_task,1,100,
5,0,5,0,,,6.23854398727,364,53,6,3364.07066202,5,,,,,,,2017_Jul_05_1445,59.8605638245,DRL_task,1,100,
5,0,5,0,,,6.57357001305,365,54,6,3370.64412117,5,,,,,,,2017_Jul_05_1445,59.8605638245,DRL_task,1,100,
5,0,5,0,,,5.77408003807,366,55,6,3376.41701698,5,,,,,,,2017_Jul_05_1445,59.8605638245,DRL_task,1,100,
5,0,5,0,,,6.13836097717,367,56,6,3382.55685997,5,,,,,,,2017_Jul_05_1445,59.8605638245,DRL_task,1,100,
5,0,5,0,,,9.24474287033,368,57,6,3391.799752,5,,,,,,,2017_Jul_05_1445,59.8605638245,DRL_task,1,100,
5,0,5,0,,,4.50315093994,368,58,6,3396.30484605,5,,,,,,,2017_Jul_05_1445,59.8605638245,DRL_task,1,100,
5,0,5,0,,,5.80618000031,369,59,6,3402.11054111,5,,,,,,,2017_Jul_05_1445,59.8605638245,DRL_task,1,100,
5,0,5,0,,,5.70731306076,370,60,6,3407.81665707,5,,,,,,,2017_Jul_05_1445,59.8605638245,DRL_task,1,100,
5,0,5,0,,,6.27336502075,371,61,6,3414.08995414,5,,,,,,,2017_Jul_05_1445,59.8605638245,DRL_task,1,100,
5,0,5,0,,,7.50790500641,372,62,6,3421.59802103,5,,,,,,,2017_Jul_05_1445,59.8605638245,DRL_task,1,100,
5,0,5,0,,,4.37122011185,372,63,6,3425.96909118,5,,,,,,,2017_Jul_05_1445,59.8605638245,DRL_task,1,100,
5,0,5,0,,,6.60730600357,373,64,6,3432.57610917,5,,,,,,,2017_Jul_05_1445,59.8605638245,DRL_task,1,100,
5,0,5,0,,,5.40557289124,374,65,6,3437.98175001,5,,,,,,,2017_Jul_05_1445,59.8605638245,DRL_task,1,100,
5,0,5,0,,,15.7164111137,375,66,6,3453.69877219,5,,,,,,,2017_Jul_05_1445,59.8605638245,DRL_task,1,100,
5,0,5,0,,,3.10346078873,375,67,6,3456.80164504,5,,,,,,,2017_Jul_05_1445,59.8605638245,DRL_task,1,100,
5,0,5,0,,,6.7067861557,376,68,6,3463.508919,5,,,,,,,2017_Jul_05_1445,59.8605638245,DRL_task,1,100,
5,0,5,0,,,5.17242193222,377,69,6,3468.68080401,5,,,,,,,2017_Jul_05_1445,59.8605638245,DRL_task,1,100,
5,0,5,0,,,5.10525202751,378,70,6,3473.786412,5,,,,,,,2017_Jul_05_1445,59.8605638245,DRL_task,1,100,
5,0,5,0,,,6.40535998344,379,71,6,3480.19316101,5,,,,,,,2017_Jul_05_1445,59.8605638245,DRL_task,1,100,
5,0,5,0,,,5.3070731163,380,72,6,3485.49857712,5,,,,,,,2017_Jul_05_1445,59.8605638245,DRL_task,1,100,
5,0,5,0,,,5.37073993683,381,73,6,3490.87108707,5,,,,,,,2017_Jul_05_1445,59.8605638245,DRL_task,1,100,
5,0,5,0,,,5.47245192528,382,74,6,3496.343472,5,,,,,,,2017_Jul_05_1445,59.8605638245,DRL_task,1,100,
5,0,5,0,,,4.83855509758,382,75,6,3501.18177414,5,,,,,,,2017_Jul_05_1445,59.8605638245,DRL_task,1,100,
5,0,5,0,,,4.87326192856,382,76,6,3506.05356812,5,,,,,,,2017_Jul_05_1445,59.8605638245,DRL_task,1,100,
5,0,5,0,,,5.13739705086,383,77,6,3511.19239616,5,,,,,,,2017_Jul_05_1445,59.8605638245,DRL_task,1,100,
5,0,5,0,,,4.93960499763,383,78,6,3516.13088703,5,,,,,,,2017_Jul_05_1445,59.8605638245,DRL_task,1,100,
5,0,5,0,,,6.14018106461,384,79,6,3522.27076316,5,,,,,,,2017_Jul_05_1445,59.8605638245,DRL_task,1,100,
5,0,5,0,,,6.57339191437,385,80,6,3528.84453297,5,,,,,,,2017_Jul_05_1445,59.8605638245,DRL_task,1,100,
5,0,5,0,,,4.70513296127,385,81,6,3533.54920411,5,,,,,,,2017_Jul_05_1445,59.8605638245,DRL_task,1,100,
5,0,5,0,,,5.52282500267,386,82,6,3539.07186604,5,,,,,,,2017_Jul_05_1445,59.8605638245,DRL_task,1,100,
5,0,5,0,,,5.4716489315,387,83,6,3544.54431701,5,,,,,,,2017_Jul_05_1445,59.8605638245,DRL_task,1,100,
5,0,5,0,,,4.03779411316,387,84,6,3548.58176208,5,,,,,,,2017_Jul_05_1445,59.8605638245,DRL_task,1,100,
5,0,5,0,,,4.60367107391,387,85,6,3553.18659997,5,,,,,,,2017_Jul_05_1445,59.8605638245,DRL_task,1,100,
5,0,5,0,,,8.04309201241,388,86,6,3561.22858906,5,,,,,,,2017_Jul_05_1445,59.8605638245,DRL_task,1,100,
5,0,5,0,,,5.40550780296,389,87,6,3566.63459396,5,,,,,,,2017_Jul_05_1445,59.8605638245,DRL_task,1,100,
5,0,5,0,,,5.10571312904,390,88,6,3571.73950815,5,,,,,,,2017_Jul_05_1445,59.8605638245,DRL_task,1,100,
5,0,5,0,,,4.13637304306,390,89,6,3575.87724209,5,,,,,,,2017_Jul_05_1445,59.8605638245,DRL_task,1,100,
5,0,5,0,,,7.94160580635,391,90,6,3583.81891918,5,,,,,,,2017_Jul_05_1445,59.8605638245,DRL_task,1,100,
5,0,5,0,,,6.30792617798,392,91,6,3590.12572408,5,,,,,,,2017_Jul_05_1445,59.8605638245,DRL_task,1,100,
5,0,5,0,,,5.83922886848,393,92,6,3595.96499801,5,,,,,,,2017_Jul_05_1445,59.8605638245,DRL_task,1,100,
5,0,5,0,,,5.33794617653,394,93,6,3601.30406308,5,,,,,,,2017_Jul_05_1445,59.8605638245,DRL_task,1,100,
5,0,5,0,,,6.23971796036,395,94,6,3607.54412317,5,,,,,,,2017_Jul_05_1445,59.8605638245,DRL_task,1,100,
5,0,5,0,,,5.77440690994,396,95,6,3613.31674504,5,,,,,,,2017_Jul_05_1445,59.8605638245,DRL_task,1,100,
5,0,5,0,,,6.4066400528,397,96,6,3619.72345901,5,,,,,,,2017_Jul_05_1445,59.8605638245,DRL_task,1,100,
5,0,5,0,,,5.07226085663,398,97,6,3624.79549313,5,,,,,,,2017_Jul_05_1445,59.8605638245,DRL_task,1,100,
5,0,5,0,,,4.80363607407,398,98,6,3629.6005671,5,,,,,,,2017_Jul_05_1445,59.8605638245,DRL_task,1,100,
5,0,5,0,,,5.73926210403,399,99,6,3635.33993101,5,,,,,,,2017_Jul_05_1445,59.8605638245,DRL_task,1,100,
5,0,5,0,,,4.4713768959,399,100,6,3639.81113911,5,,,,,,,2017_Jul_05_1445,59.8605638245,DRL_task,1,100,
5,0,5,0,,,5.87404799461,400,101,6,3645.68412304,5,,,,,,,2017_Jul_05_1445,59.8605638245,DRL_task,1,100,
5,0,5,0,,,7.60675501823,401,102,6,3653.29218197,5,,,,,,,2017_Jul_05_1445,59.8605638245,DRL_task,1,100,
5,0,5,0,,,4.90650701523,401,103,6,3658.197541,5,,,,,,,2017_Jul_05_1445,59.8605638245,DRL_task,1,100,
5,0,5,0,,,6.3398270607,402,104,6,3664.53752804,5,,,,,,,2017_Jul_05_1445,59.8605638245,DRL_task,1,100,
5,0,5,0,,,8.64276385307,403,105,6,3673.17981815,5,,,,,,,2017_Jul_05_1445,59.8605638245,DRL_task,1,100,
5,0,5,0,,,,,,,,,"['space', 'space', 'space', 'space', 'space', 'space', 'space', 'space', 'space', 'space', 'space', 'space', 'space', 'space', 'space', 'space', 'space', 'space', 'space', 'space', 'space', 'space', 'space', 'space', 'space', 'space', 'space', 'space', 'space', 'space', 'space', 'space', 'space', 'space', 'space', 'space', 'space', 'space', 'space', 'space', 'space', 'space', 'space', 'space', 'space', 'space', 'space', 'space', 'space', 'space', 'space', 'space', 'space', 'space', 'space', 'space', 'space', 'space', 'space', 'space', 'space', 'space', 'space', 'space', 'space', 'space', 'space', 'space', 'space', 'space', 'space', 'space', 'space', 'space', 'space', 'space', 'space', 'space', 'space', 'space', 'space', 'space', 'space', 'space', 'space', 'space', 'space', 'space', 'space', 'space', 'space', 'space', 'space', 'space', 'space', 'space', 'space', 'space', 'space', 'space', 'space', 'space', 'space', 'space', 'space']","[3.7830121517181396, 9.270591974258423, 14.676443099975586, 19.28124213218689, 24.470155000686646, 30.260563135147095, 36.00014019012451, 42.089805126190186, 46.25978708267212, 52.46628212928772, 62.46116805076599, 67.90072512626648, 72.63862800598145, 78.3450071811676, 84.33429408073425, 89.9223301410675, 95.09616804122925, 99.76729607582092, 103.63834500312805, 108.94360518455505, 112.44622707366943, 117.43484807014465, 122.95725202560425, 129.0983350276947, 134.3358120918274, 139.07544708251953, 145.54906296730042, 150.82116103172302, 155.7584090232849, 161.36569714546204, 166.9369900226593, 174.1791410446167, 180.93657612800598, 186.34082412719727, 194.56566715240479, 197.1701979637146, 202.3411090373993, 208.0150489807129, 213.25381016731262, 217.2566590309143, 221.26234316825867, 233.3917679786682, 240.89819717407227, 245.70325803756714, 250.8435080051422, 256.31570196151733, 258.8517210483551, 260.3201081752777, 264.89033818244934, 270.2308089733124, 275.0675630569458, 280.0409381389618, 286.27948212623596, 292.8530521392822, 298.6271321773529, 304.76549315452576, 314.01023602485657, 318.513386964798, 324.31956696510315, 330.02688002586365, 336.3002450466156, 343.8081500530243, 348.1793701648712, 354.7866761684418, 360.1922490596771, 375.90866017341614, 379.01212096214294, 385.7189071178436, 390.8913290500641, 395.9965810775757, 402.4019410610199, 407.7090141773224, 413.079754114151, 418.5522060394287, 423.39076113700867, 428.264023065567, 433.40142011642456, 438.34102511405945, 444.48120617866516, 451.05459809303284, 455.75973105430603, 461.2825560569763, 466.7542049884796, 470.7919991016388, 475.39567017555237, 483.43876218795776, 488.844269990921, 493.9499831199646, 498.0863561630249, 506.0279619693756, 512.3358881473541, 518.1751170158386, 523.5130631923676, 529.7527811527252, 535.5271880626678, 541.9338281154633, 547.0060889720917, 551.8097250461578, 557.5489871501923, 562.0203640460968, 567.8944120407104, 575.5011670589447, 580.407674074173, 586.7475011348724, 595.3902649879456]",space,22.4917490482,,,2017_Jul_05_1445,59.8605638245,DRL_task,1,100,
,,,,,,,,,,,,,,,,space,2.87152719498,2017_Jul_05_1445,59.8605638245,DRL_task,1,100,
