experiment.thisRepN,experiment.thisTrialN,experiment.thisN,experiment.thisIndex,instructions_key.keys,instructions_key.rt,rt,score,response_number,block_number,time,interval,response.keys,response.rt,break_key.keys,break_key.rt,closing_key.keys,closing_key.rt,date,frameRate,expName,session,participant,
,,,,space,9.39610004425,,,,,,,,,,,,,2017_Jul_06_1508,59.9613724641,DRL_task,1,101,
0,0,0,0,,,38.4630360603,1,1,1,49.2989330292,5,,,,,,,2017_Jul_06_1508,59.9613724641,DRL_task,1,101,
0,0,0,0,,,19.2200620174,2,2,1,68.519094944,5,,,,,,,2017_Jul_06_1508,59.9613724641,DRL_task,1,101,
0,0,0,0,,,13.5961940289,3,3,1,82.1168529987,5,,,,,,,2017_Jul_06_1508,59.9613724641,DRL_task,1,101,
0,0,0,0,,,13.0471720695,4,4,1,95.1639819145,5,,,,,,,2017_Jul_06_1508,59.9613724641,DRL_task,1,101,
0,0,0,0,,,3.70542001724,4,5,1,98.8678369522,5,,,,,,,2017_Jul_06_1508,59.9613724641,DRL_task,1,101,
0,0,0,0,,,13.9132158756,5,6,1,112.782418966,5,,,,,,,2017_Jul_06_1508,59.9613724641,DRL_task,1,101,
0,0,0,0,,,7.64267897606,6,7,1,120.423223972,5,,,,,,,2017_Jul_06_1508,59.9613724641,DRL_task,1,101,
0,0,0,0,,,7.00735592842,7,8,1,127.431004047,5,,,,,,,2017_Jul_06_1508,59.9613724641,DRL_task,1,101,
0,0,0,0,,,6.8405611515,8,9,1,134.27158308,5,,,,,,,2017_Jul_06_1508,59.9613724641,DRL_task,1,101,
0,0,0,0,,,4.62152886391,8,10,1,138.893307924,5,,,,,,,2017_Jul_06_1508,59.9613724641,DRL_task,1,101,
0,0,0,0,,,9.54196619987,9,11,1,148.436732054,5,,,,,,,2017_Jul_06_1508,59.9613724641,DRL_task,1,101,
0,0,0,0,,,10.1956808567,10,12,1,158.630599976,5,,,,,,,2017_Jul_06_1508,59.9613724641,DRL_task,1,101,
0,0,0,0,,,6.75687909126,11,13,1,165.404011965,5,,,,,,,2017_Jul_06_1508,59.9613724641,DRL_task,1,101,
0,0,0,0,,,6.00640583038,12,14,1,171.394181013,5,,,,,,,2017_Jul_06_1508,59.9613724641,DRL_task,1,101,
0,0,0,0,,,6.1715362072,13,15,1,177.567224979,5,,,,,,,2017_Jul_06_1508,59.9613724641,DRL_task,1,101,
0,0,0,0,,,7.89176893234,14,16,1,185.458699942,5,,,,,,,2017_Jul_06_1508,59.9613724641,DRL_task,1,101,
0,0,0,0,,,4.85657000542,14,17,1,190.31408,5,,,,,,,2017_Jul_06_1508,59.9613724641,DRL_task,1,101,
0,0,0,0,,,9.96041107178,15,18,1,200.274296999,5,,,,,,,2017_Jul_06_1508,59.9613724641,DRL_task,1,101,
0,0,0,0,,,11.028637886,16,19,1,211.302645922,5,,,,,,,2017_Jul_06_1508,59.9613724641,DRL_task,1,101,
0,0,0,0,,,10.292263031,17,20,1,221.596853018,5,,,,,,,2017_Jul_06_1508,59.9613724641,DRL_task,1,101,
0,0,0,0,,,8.6259200573,18,21,1,230.222033978,5,,,,,,,2017_Jul_06_1508,59.9613724641,DRL_task,1,101,
0,0,0,0,,,5.79067897797,19,22,1,236.01198411,5,,,,,,,2017_Jul_06_1508,59.9613724641,DRL_task,1,101,
0,0,0,0,,,6.7072520256,20,23,1,242.719136,5,,,,,,,2017_Jul_06_1508,59.9613724641,DRL_task,1,101,
0,0,0,0,,,6.03807902336,21,24,1,248.758387089,5,,,,,,,2017_Jul_06_1508,59.9613724641,DRL_task,1,101,
0,0,0,0,,,5.02350592613,22,25,1,253.780715942,5,,,,,,,2017_Jul_06_1508,59.9613724641,DRL_task,1,101,
0,0,0,0,,,3.7037320137,22,26,1,257.484247923,5,,,,,,,2017_Jul_06_1508,59.9613724641,DRL_task,1,101,
0,0,0,0,,,5.32232999802,23,27,1,262.806724072,5,,,,,,,2017_Jul_06_1508,59.9613724641,DRL_task,1,101,
0,0,0,0,,,8.64279794693,24,28,1,271.44908905,5,,,,,,,2017_Jul_06_1508,59.9613724641,DRL_task,1,101,
0,0,0,0,,,6.54019999504,25,29,1,277.989380121,5,,,,,,,2017_Jul_06_1508,59.9613724641,DRL_task,1,101,
0,0,0,0,,,6.30649995804,26,30,1,284.296013117,5,,,,,,,2017_Jul_06_1508,59.9613724641,DRL_task,1,101,
0,0,0,0,,,7.1057240963,27,31,1,291.403548002,5,,,,,,,2017_Jul_06_1508,59.9613724641,DRL_task,1,101,
0,0,0,0,,,0.216943979263,27,32,1,291.620512009,5,,,,,,,2017_Jul_06_1508,59.9613724641,DRL_task,1,101,
0,0,0,0,,,8.75919604301,28,33,1,300.379853964,5,,,,,,,2017_Jul_06_1508,59.9613724641,DRL_task,1,101,
0,0,0,0,,,7.05873703957,29,34,1,307.437153101,5,,,,,,,2017_Jul_06_1508,59.9613724641,DRL_task,1,101,
0,0,0,0,,,6.49044179916,30,35,1,313.927166939,5,,,,,,,2017_Jul_06_1508,59.9613724641,DRL_task,1,101,
0,0,0,0,,,5.15560698509,31,36,1,319.082648039,5,,,,,,,2017_Jul_06_1508,59.9613724641,DRL_task,1,101,
0,0,0,0,,,4.0358850956,31,37,1,323.120505095,5,,,,,,,2017_Jul_06_1508,59.9613724641,DRL_task,1,101,
0,0,0,0,,,7.52611994743,32,38,1,330.64479804,5,,,,,,,2017_Jul_06_1508,59.9613724641,DRL_task,1,101,
0,0,0,0,,,7.29112696648,33,39,1,337.935755014,5,,,,,,,2017_Jul_06_1508,59.9613724641,DRL_task,1,101,
0,0,0,0,,,5.5387430191,34,40,1,343.474939108,5,,,,,,,2017_Jul_06_1508,59.9613724641,DRL_task,1,101,
0,0,0,0,,,4.20447802544,34,41,1,347.679317951,5,,,,,,,2017_Jul_06_1508,59.9613724641,DRL_task,1,101,
0,0,0,0,,,7.97507810593,35,42,1,355.654006004,5,,,,,,,2017_Jul_06_1508,59.9613724641,DRL_task,1,101,
0,0,0,0,,,9.89386606216,36,43,1,365.547914982,5,,,,,,,2017_Jul_06_1508,59.9613724641,DRL_task,1,101,
0,0,0,0,,,7.47425198555,37,44,1,373.022906065,5,,,,,,,2017_Jul_06_1508,59.9613724641,DRL_task,1,101,
0,0,0,0,,,7.84034585953,38,45,1,380.864500046,5,,,,,,,2017_Jul_06_1508,59.9613724641,DRL_task,1,101,
0,0,0,0,,,6.64183306694,39,46,1,387.504519939,5,,,,,,,2017_Jul_06_1508,59.9613724641,DRL_task,1,101,
0,0,0,0,,,8.14185595512,40,47,1,395.663145065,5,,,,,,,2017_Jul_06_1508,59.9613724641,DRL_task,1,101,
0,0,0,0,,,6.64043903351,41,48,1,402.28696394,5,,,,,,,2017_Jul_06_1508,59.9613724641,DRL_task,1,101,
0,0,0,0,,,5.35567998886,42,49,1,407.642344952,5,,,,,,,2017_Jul_06_1508,59.9613724641,DRL_task,1,101,
0,0,0,0,,,5.80612897873,43,50,1,413.448511124,5,,,,,,,2017_Jul_06_1508,59.9613724641,DRL_task,1,101,
0,0,0,0,,,4.17074298859,43,51,1,417.619586945,5,,,,,,,2017_Jul_06_1508,59.9613724641,DRL_task,1,101,
0,0,0,0,,,4.60485315323,43,52,1,422.224581003,5,,,,,,,2017_Jul_06_1508,59.9613724641,DRL_task,1,101,
0,0,0,0,,,13.3640639782,44,53,1,435.588434935,5,,,,,,,2017_Jul_06_1508,59.9613724641,DRL_task,1,101,
0,0,0,0,,,12.3798220158,45,54,1,447.968151093,5,,,,,,,2017_Jul_06_1508,59.9613724641,DRL_task,1,101,
0,0,0,0,,,9.29334688187,46,55,1,457.26138401,5,,,,,,,2017_Jul_06_1508,59.9613724641,DRL_task,1,101,
0,0,0,0,,,9.7267510891,47,56,1,466.988445997,5,,,,,,,2017_Jul_06_1508,59.9613724641,DRL_task,1,101,
0,0,0,0,,,8.52518391609,48,57,1,475.513891935,5,,,,,,,2017_Jul_06_1508,59.9613724641,DRL_task,1,101,
0,0,0,0,,,6.60716509819,49,58,1,482.120728016,5,,,,,,,2017_Jul_06_1508,59.9613724641,DRL_task,1,101,
0,0,0,0,,,5.37262988091,50,59,1,487.49299407,5,,,,,,,2017_Jul_06_1508,59.9613724641,DRL_task,1,101,
0,0,0,0,,,5.35409712791,51,60,1,492.858978033,5,,,,,,,2017_Jul_06_1508,59.9613724641,DRL_task,1,101,
0,0,0,0,,,6.373254776,52,61,1,499.222281933,5,,,,,,,2017_Jul_06_1508,59.9613724641,DRL_task,1,101,
0,0,0,0,,,5.1737651825,53,62,1,504.394201994,5,,,,,,,2017_Jul_06_1508,59.9613724641,DRL_task,1,101,
0,0,0,0,,,7.30583882332,54,63,1,511.701976061,5,,,,,,,2017_Jul_06_1508,59.9613724641,DRL_task,1,101,
0,0,0,0,,,7.47452807426,55,64,1,519.176606894,5,,,,,,,2017_Jul_06_1508,59.9613724641,DRL_task,1,101,
0,0,0,0,,,6.47454214096,56,65,1,525.650060892,5,,,,,,,2017_Jul_06_1508,59.9613724641,DRL_task,1,101,
0,0,0,0,,,6.10692596436,57,66,1,531.756453037,5,,,,,,,2017_Jul_06_1508,59.9613724641,DRL_task,1,101,
0,0,0,0,,,6.79042696953,58,67,1,538.546924114,5,,,,,,,2017_Jul_06_1508,59.9613724641,DRL_task,1,101,
0,0,0,0,,,7.04040002823,59,68,1,545.587642908,5,,,,,,,2017_Jul_06_1508,59.9613724641,DRL_task,1,101,
0,0,0,0,,,6.73937702179,60,69,1,552.327941895,5,,,,,,,2017_Jul_06_1508,59.9613724641,DRL_task,1,101,
0,0,0,0,,,8.22676301003,61,70,1,560.553392887,5,,,,,,,2017_Jul_06_1508,59.9613724641,DRL_task,1,101,
0,0,0,0,,,7.08949685097,62,71,1,567.64399004,5,,,,,,,2017_Jul_06_1508,59.9613724641,DRL_task,1,101,
0,0,0,0,,,8.92576098442,63,72,1,576.570250034,5,,,,,,,2017_Jul_06_1508,59.9613724641,DRL_task,1,101,
0,0,0,0,,,5.27251601219,64,73,1,581.858926058,5,,,,,,,2017_Jul_06_1508,59.9613724641,DRL_task,1,101,
0,0,0,0,,,5.52388811111,65,74,1,587.364762068,5,,,,,,,2017_Jul_06_1508,59.9613724641,DRL_task,1,101,
0,0,0,0,,,4.92181587219,65,75,1,592.286850929,5,,,,,,,2017_Jul_06_1508,59.9613724641,DRL_task,1,101,
0,0,0,0,,,10.2924501896,66,76,1,602.581039906,5,,,,,,,2017_Jul_06_1508,59.9613724641,DRL_task,1,101,
0,0,0,0,,,,,,,,,"['space', 'space', 'space', 'space', 'space', 'space', 'space', 'space', 'space', 'space', 'space', 'space', 'space', 'space', 'space', 'space', 'space', 'space', 'space', 'space', 'space', 'space', 'space', 'space', 'space', 'space', 'space', 'space', 'space', 'space', 'space', 'space', 'space', 'space', 'space', 'space', 'space', 'space', 'space', 'space', 'space', 'space', 'space', 'space', 'space', 'space', 'space', 'space', 'space', 'space', 'space', 'space', 'space', 'space', 'space', 'space', 'space', 'space', 'space', 'space', 'space', 'space', 'space', 'space', 'space', 'space', 'space', 'space', 'space', 'space', 'space', 'space', 'space', 'space', 'space', 'space']","[38.46303606033325, 57.68309807777405, 71.27929210662842, 84.32646417617798, 88.03188419342041, 101.94510006904602, 109.58777904510498, 116.595134973526, 123.43569612503052, 128.05722498893738, 137.59919118881226, 147.79487204551697, 154.55175113677979, 160.5581569671631, 166.72969317436218, 174.6214621067047, 179.47803211212158, 189.43844318389893, 200.4670810699463, 210.75934410095215, 219.3852641582489, 225.1759431362152, 231.88319516181946, 237.92127418518066, 242.94478011131287, 246.64851212501526, 251.97084212303162, 260.61364006996155, 267.15384006500244, 273.46034002304077, 280.566064119339, 280.7830080986023, 289.5422041416168, 296.60094118118286, 303.0913829803467, 308.24698996543884, 312.28287506103516, 319.8089950084686, 327.10012197494507, 332.6388649940491, 336.8433430194855, 344.818421125412, 354.7122871875763, 362.1865391731262, 370.0268850326538, 376.6687180995941, 384.810574054718, 391.4510130882263, 396.8066930770874, 402.61282205581665, 406.7835650444031, 411.38841819763184, 424.752482175827, 437.13230419158936, 446.4256510734558, 456.1524021625519, 464.6775860786438, 471.2847511768341, 476.65738105773926, 482.0114781856537, 488.38473296165466, 493.5584981441498, 500.86433696746826, 508.3388650417328, 514.8134071826935, 520.920333147049, 527.7107601165771, 534.7511601448059, 541.4905371665955, 549.7173001766205, 556.8067970275879, 565.7325580120087, 571.0050740242004, 576.5289621353149, 581.4507780075073, 591.7432281970978]",space,30.2501151562,,,2017_Jul_06_1508,59.9613724641,DRL_task,1,101,
1,0,1,0,,,8.69587206841,67,1,2,651.08187294,5,,,,,,,2017_Jul_06_1508,59.9613724641,DRL_task,1,101,
1,0,1,0,,,7.19050002098,68,2,2,658.289396048,5,,,,,,,2017_Jul_06_1508,59.9613724641,DRL_task,1,101,
1,0,1,0,,,6.64072585106,69,3,2,664.913197994,5,,,,,,,2017_Jul_06_1508,59.9613724641,DRL_task,1,101,
1,0,1,0,,,5.62236714363,70,4,2,670.535782099,5,,,,,,,2017_Jul_06_1508,59.9613724641,DRL_task,1,101,
1,0,1,0,,,5.1571199894,71,5,2,675.691127062,5,,,,,,,2017_Jul_06_1508,59.9613724641,DRL_task,1,101,
1,0,1,0,,,5.92274093628,72,6,2,681.613862991,5,,,,,,,2017_Jul_06_1508,59.9613724641,DRL_task,1,101,
1,0,1,0,,,5.2373290062,73,7,2,686.852920055,5,,,,,,,2017_Jul_06_1508,59.9613724641,DRL_task,1,101,
1,0,1,0,,,4.27300000191,73,8,2,691.123912096,5,,,,,,,2017_Jul_06_1508,59.9613724641,DRL_task,1,101,
1,0,1,0,,,7.58963394165,74,9,2,698.714832067,5,,,,,,,2017_Jul_06_1508,59.9613724641,DRL_task,1,101,
1,0,1,0,,,8.49210596085,75,10,2,707.207703114,5,,,,,,,2017_Jul_06_1508,59.9613724641,DRL_task,1,101,
1,0,1,0,,,7.49136614799,76,11,2,714.698707104,5,,,,,,,2017_Jul_06_1508,59.9613724641,DRL_task,1,101,
1,0,1,0,,,6.52511096001,77,12,2,721.222377062,5,,,,,,,2017_Jul_06_1508,59.9613724641,DRL_task,1,101,
1,0,1,0,,,5.93960499763,78,13,2,727.195223093,5,,,,,,,2017_Jul_06_1508,59.9613724641,DRL_task,1,101,
1,0,1,0,,,5.42219209671,79,14,2,732.583766937,5,,,,,,,2017_Jul_06_1508,59.9613724641,DRL_task,1,101,
1,0,1,0,,,6.00636696815,80,15,2,738.590343952,5,,,,,,,2017_Jul_06_1508,59.9613724641,DRL_task,1,101,
1,0,1,0,,,6.37180089951,81,16,2,744.963892937,5,,,,,,,2017_Jul_06_1508,59.9613724641,DRL_task,1,101,
1,0,1,0,,,8.79243707657,82,17,2,753.756660938,5,,,,,,,2017_Jul_06_1508,59.9613724641,DRL_task,1,101,
1,0,1,0,,,5.97296905518,83,18,2,759.729511976,5,,,,,,,2017_Jul_06_1508,59.9613724641,DRL_task,1,101,
1,0,1,0,,,5.35727381706,84,19,2,765.085282087,5,,,,,,,2017_Jul_06_1508,59.9613724641,DRL_task,1,101,
1,0,1,0,,,4.77114915848,84,20,2,769.856864929,5,,,,,,,2017_Jul_06_1508,59.9613724641,DRL_task,1,101,
1,0,1,0,,,8.84187698364,85,21,2,778.699458122,5,,,,,,,2017_Jul_06_1508,59.9613724641,DRL_task,1,101,
1,0,1,0,,,11.0946249962,86,22,2,789.794493914,5,,,,,,,2017_Jul_06_1508,59.9613724641,DRL_task,1,101,
1,0,1,0,,,6.59029483795,87,23,2,796.384818077,5,,,,,,,2017_Jul_06_1508,59.9613724641,DRL_task,1,101,
1,0,1,0,,,6.87412619591,88,24,2,803.258568048,5,,,,,,,2017_Jul_06_1508,59.9613724641,DRL_task,1,101,
1,0,1,0,,,6.12305593491,89,25,2,809.381565094,5,,,,,,,2017_Jul_06_1508,59.9613724641,DRL_task,1,101,
1,0,1,0,,,8.22673606873,90,26,2,817.606856108,5,,,,,,,2017_Jul_06_1508,59.9613724641,DRL_task,1,101,
1,0,1,0,,,5.80604600906,91,27,2,823.412996054,5,,,,,,,2017_Jul_06_1508,59.9613724641,DRL_task,1,101,
1,0,1,0,,,5.33759880066,92,28,2,828.752001047,5,,,,,,,2017_Jul_06_1508,59.9613724641,DRL_task,1,101,
1,0,1,0,,,6.59140110016,93,29,2,835.342061996,5,,,,,,,2017_Jul_06_1508,59.9613724641,DRL_task,1,101,
1,0,1,0,,,7.72525405884,94,30,2,843.067233086,5,,,,,,,2017_Jul_06_1508,59.9613724641,DRL_task,1,101,
1,0,1,0,,,6.99026703835,95,31,2,850.057887077,5,,,,,,,2017_Jul_06_1508,59.9613724641,DRL_task,1,101,
1,0,1,0,,,6.72256398201,96,32,2,856.781461954,5,,,,,,,2017_Jul_06_1508,59.9613724641,DRL_task,1,101,
1,0,1,0,,,10.6778669357,97,33,2,867.459297895,5,,,,,,,2017_Jul_06_1508,59.9613724641,DRL_task,1,101,
1,0,1,0,,,7.00743603706,98,34,2,874.466815948,5,,,,,,,2017_Jul_06_1508,59.9613724641,DRL_task,1,101,
1,0,1,0,,,5.79077601433,99,35,2,880.256304026,5,,,,,,,2017_Jul_06_1508,59.9613724641,DRL_task,1,101,
1,0,1,0,,,5.23738503456,100,36,2,885.494952917,5,,,,,,,2017_Jul_06_1508,59.9613724641,DRL_task,1,101,
1,0,1,0,,,6.541492939,101,37,2,892.035149097,5,,,,,,,2017_Jul_06_1508,59.9613724641,DRL_task,1,101,
1,0,1,0,,,4.16981101036,101,38,2,896.20646596,5,,,,,,,2017_Jul_06_1508,59.9613724641,DRL_task,1,101,
1,0,1,0,,,9.50998091698,102,39,2,905.716164112,5,,,,,,,2017_Jul_06_1508,59.9613724641,DRL_task,1,101,
1,0,1,0,,,9.07771611214,103,40,2,914.79250598,5,,,,,,,2017_Jul_06_1508,59.9613724641,DRL_task,1,101,
1,0,1,0,,,8.47595381737,104,41,2,923.268059969,5,,,,,,,2017_Jul_06_1508,59.9613724641,DRL_task,1,101,
1,0,1,0,,,6.87355303764,105,42,2,930.14191699,5,,,,,,,2017_Jul_06_1508,59.9613724641,DRL_task,1,101,
1,0,1,0,,,6.90704703331,106,43,2,937.049192905,5,,,,,,,2017_Jul_06_1508,59.9613724641,DRL_task,1,101,
1,0,1,0,,,5.32290005684,107,44,2,942.405030966,5,,,,,,,2017_Jul_06_1508,59.9613724641,DRL_task,1,101,
1,0,1,0,,,6.32290005684,108,45,2,948.694789886,5,,,,,,,2017_Jul_06_1508,59.9613724641,DRL_task,1,101,
1,0,1,0,,,8.29202580452,109,46,2,956.98705411,5,,,,,,,2017_Jul_06_1508,59.9613724641,DRL_task,1,101,
1,0,1,0,,,6.98934102058,110,47,2,963.977556944,5,,,,,,,2017_Jul_06_1508,59.9613724641,DRL_task,1,101,
1,0,1,0,,,7.17539215088,111,48,2,971.151809931,5,,,,,,,2017_Jul_06_1508,59.9613724641,DRL_task,1,101,
1,0,1,0,,,6.74944591522,112,49,2,977.908832073,5,,,,,,,2017_Jul_06_1508,59.9613724641,DRL_task,1,101,
1,0,1,0,,,5.91361403465,113,50,2,983.815223932,5,,,,,,,2017_Jul_06_1508,59.9613724641,DRL_task,1,101,
1,0,1,0,,,5.58955192566,114,51,2,989.404541016,5,,,,,,,2017_Jul_06_1508,59.9613724641,DRL_task,1,101,
1,0,1,0,,,5.62132811546,115,52,2,995.026901007,5,,,,,,,2017_Jul_06_1508,59.9613724641,DRL_task,1,101,
1,0,1,0,,,5.47230195999,116,53,2,1000.49925494,5,,,,,,,2017_Jul_06_1508,59.9613724641,DRL_task,1,101,
1,0,1,0,,,6.64035987854,117,54,2,1007.13962698,5,,,,,,,2017_Jul_06_1508,59.9613724641,DRL_task,1,101,
1,0,1,0,,,6.82484602928,118,55,2,1013.96360397,5,,,,,,,2017_Jul_06_1508,59.9613724641,DRL_task,1,101,
1,0,1,0,,,5.75493097305,119,56,2,1019.71948409,5,,,,,,,2017_Jul_06_1508,59.9613724641,DRL_task,1,101,
1,0,1,0,,,7.30777812004,120,57,2,1027.02723908,5,,,,,,,2017_Jul_06_1508,59.9613724641,DRL_task,1,101,
1,0,1,0,,,5.42179894447,121,58,2,1032.44972992,5,,,,,,,2017_Jul_06_1508,59.9613724641,DRL_task,1,101,
1,0,1,0,,,5.22405314445,122,59,2,1037.67165995,5,,,,,,,2017_Jul_06_1508,59.9613724641,DRL_task,1,101,
1,0,1,0,,,6.02295088768,123,60,2,1043.69485903,5,,,,,,,2017_Jul_06_1508,59.9613724641,DRL_task,1,101,
1,0,1,0,,,4.68855690956,123,61,2,1048.38303804,5,,,,,,,2017_Jul_06_1508,59.9613724641,DRL_task,1,101,
1,0,1,0,,,8.79222917557,124,62,2,1057.17577004,5,,,,,,,2017_Jul_06_1508,59.9613724641,DRL_task,1,101,
1,0,1,0,,,8.42425394058,125,63,2,1065.60104203,5,,,,,,,2017_Jul_06_1508,59.9613724641,DRL_task,1,101,
1,0,1,0,,,8.41006994247,126,64,2,1074.00992393,5,,,,,,,2017_Jul_06_1508,59.9613724641,DRL_task,1,101,
1,0,1,0,,,7.27458310127,127,65,2,1081.28441501,5,,,,,,,2017_Jul_06_1508,59.9613724641,DRL_task,1,101,
1,0,1,0,,,7.05720496178,128,66,2,1088.34181309,5,,,,,,,2017_Jul_06_1508,59.9613724641,DRL_task,1,101,
1,0,1,0,,,5.78975486755,129,67,2,1094.1309731,5,,,,,,,2017_Jul_06_1508,59.9613724641,DRL_task,1,101,
1,0,1,0,,,4.97158908844,129,68,2,1099.10301208,5,,,,,,,2017_Jul_06_1508,59.9613724641,DRL_task,1,101,
1,0,1,0,,,7.69020199776,130,69,2,1106.79443097,5,,,,,,,2017_Jul_06_1508,59.9613724641,DRL_task,1,101,
1,0,1,0,,,8.00949311256,131,70,2,1114.80300999,5,,,,,,,2017_Jul_06_1508,59.9613724641,DRL_task,1,101,
1,0,1,0,,,6.47225594521,132,71,2,1121.27616811,5,,,,,,,2017_Jul_06_1508,59.9613724641,DRL_task,1,101,
1,0,1,0,,,12.7966890335,133,72,2,1134.073102,5,,,,,,,2017_Jul_06_1508,59.9613724641,DRL_task,1,101,
1,0,1,0,,,8.15878582001,134,73,2,1142.23170209,5,,,,,,,2017_Jul_06_1508,59.9613724641,DRL_task,1,101,
1,0,1,0,,,8.20863699913,135,74,2,1150.44033408,5,,,,,,,2017_Jul_06_1508,59.9613724641,DRL_task,1,101,
1,0,1,0,,,7.12531113625,136,75,2,1157.56469703,5,,,,,,,2017_Jul_06_1508,59.9613724641,DRL_task,1,101,
1,0,1,0,,,6.94074392319,137,76,2,1164.505126,5,,,,,,,2017_Jul_06_1508,59.9613724641,DRL_task,1,101,
1,0,1,0,,,6.75695014,138,77,2,1171.26240301,5,,,,,,,2017_Jul_06_1508,59.9613724641,DRL_task,1,101,
1,0,1,0,,,7.47487187386,139,78,2,1178.73693705,5,,,,,,,2017_Jul_06_1508,59.9613724641,DRL_task,1,101,
1,0,1,0,,,6.90713906288,140,79,2,1185.64405489,5,,,,,,,2017_Jul_06_1508,59.9613724641,DRL_task,1,101,
1,0,1,0,,,7.52312493324,141,80,2,1193.16881204,5,,,,,,,2017_Jul_06_1508,59.9613724641,DRL_task,1,101,
1,0,1,0,,,6.44012999535,142,81,2,1199.60858297,5,,,,,,,2017_Jul_06_1508,59.9613724641,DRL_task,1,101,
1,0,1,0,,,5.92291307449,143,82,2,1205.53181791,5,,,,,,,2017_Jul_06_1508,59.9613724641,DRL_task,1,101,
1,0,1,0,,,6.74055194855,144,83,2,1212.28869009,5,,,,,,,2017_Jul_06_1508,59.9613724641,DRL_task,1,101,
1,0,1,0,,,7.97629594803,145,84,2,1220.24721694,5,,,,,,,2017_Jul_06_1508,59.9613724641,DRL_task,1,101,
1,0,1,0,,,11.7942631245,146,85,2,1232.04295802,5,,,,,,,2017_Jul_06_1508,59.9613724641,DRL_task,1,101,
1,0,1,0,,,8.10877490044,147,86,2,1240.15113902,5,,,,,,,2017_Jul_06_1508,59.9613724641,DRL_task,1,101,
1,0,1,0,,,,,,,,,"['space', 'space', 'space', 'space', 'space', 'space', 'space', 'space', 'space', 'space', 'space', 'space', 'space', 'space', 'space', 'space', 'space', 'space', 'space', 'space', 'space', 'space', 'space', 'space', 'space', 'space', 'space', 'space', 'space', 'space', 'space', 'space', 'space', 'space', 'space', 'space', 'space', 'space', 'space', 'space', 'space', 'space', 'space', 'space', 'space', 'space', 'space', 'space', 'space', 'space', 'space', 'space', 'space', 'space', 'space', 'space', 'space', 'space', 'space', 'space', 'space', 'space', 'space', 'space', 'space', 'space', 'space', 'space', 'space', 'space', 'space', 'space', 'space', 'space', 'space', 'space', 'space', 'space', 'space', 'space', 'space', 'space', 'space', 'space', 'space', 'space']","[8.695872068405151, 15.886372089385986, 22.527097940444946, 28.149465084075928, 33.30658507347107, 39.229326009750366, 44.466655015945435, 48.73965501785278, 56.329288959503174, 64.82139492034912, 72.31276106834412, 78.83787202835083, 84.77747702598572, 90.19966912269592, 96.20603609085083, 102.57783699035645, 111.37027406692505, 117.34324312210083, 122.70051693916321, 127.47166609764099, 136.31354308128357, 147.40816807746887, 153.99846291542053, 160.87258911132812, 166.99564504623413, 175.22238111495972, 181.02842712402344, 186.36602592468262, 192.9574270248413, 200.6826810836792, 207.67294812202454, 214.39551210403442, 225.0733790397644, 232.080815076828, 237.871591091156, 243.10897612571716, 249.65046906471252, 253.82028007507324, 263.33026099205017, 272.407977104187, 280.88393092155457, 287.757483959198, 294.66453099250793, 299.9874310493469, 306.3103311061859, 314.60235691070557, 321.5916979312897, 328.7670900821686, 335.51653599739075, 341.43015003204346, 347.01970195770264, 352.6410300731659, 358.11333203315735, 364.7536919116974, 371.578537940979, 377.333468914032, 384.6412470340729, 390.06304597854614, 395.2870991230011, 401.31005001068115, 405.9986069202423, 414.79083609580994, 423.2150900363922, 431.6251599788666, 438.89974308013916, 445.9569480419159, 451.7467029094696, 456.71829199790955, 464.4084939956665, 472.4179871082306, 478.8902430534363, 491.6869320869446, 499.8457179069519, 508.05435490608215, 515.1796660423279, 522.1204099655151, 528.8773601055145, 536.3522319793701, 543.2593710422516, 550.7824959754944, 557.2226259708405, 563.1455390453339, 569.8860909938812, 577.8623869419098, 589.6566500663757, 597.7654249668121]",space,25.5954389572,,,2017_Jul_06_1508,59.9613724641,DRL_task,1,101,
2,0,2,0,,,7.88649916649,148,1,3,1277.07356811,5,,,,,,,2017_Jul_06_1508,59.9613724641,DRL_task,1,101,
2,0,2,0,,,6.99051094055,149,2,3,1284.06418896,5,,,,,,,2017_Jul_06_1508,59.9613724641,DRL_task,1,101,
2,0,2,0,,,8.35988092422,150,3,3,1292.4231391,5,,,,,,,2017_Jul_06_1508,59.9613724641,DRL_task,1,101,
2,0,2,0,,,7.64010214806,151,4,3,1300.06451607,5,,,,,,,2017_Jul_06_1508,59.9613724641,DRL_task,1,101,
2,0,2,0,,,7.12579488754,152,5,3,1307.18871808,5,,,,,,,2017_Jul_06_1508,59.9613724641,DRL_task,1,101,
2,0,2,0,,,6.22164201736,153,6,3,1313.41196203,5,,,,,,,2017_Jul_06_1508,59.9613724641,DRL_task,1,101,
2,0,2,0,,,6.20653605461,154,7,3,1319.61850905,5,,,,,,,2017_Jul_06_1508,59.9613724641,DRL_task,1,101,
2,0,2,0,,,7.0758960247,155,8,3,1326.69236398,5,,,,,,,2017_Jul_06_1508,59.9613724641,DRL_task,1,101,
2,0,2,0,,,5.13687896729,156,9,3,1331.83127308,5,,,,,,,2017_Jul_06_1508,59.9613724641,DRL_task,1,101,
2,0,2,0,,,6.70706701279,157,10,3,1338.53832912,5,,,,,,,2017_Jul_06_1508,59.9613724641,DRL_task,1,101,
2,0,2,0,,,6.57528805733,158,11,3,1345.11195493,5,,,,,,,2017_Jul_06_1508,59.9613724641,DRL_task,1,101,
2,0,2,0,,,6.74054694176,159,12,3,1351.8521769,5,,,,,,,2017_Jul_06_1508,59.9613724641,DRL_task,1,101,
2,0,2,0,,,5.53895306587,160,13,3,1357.39156008,5,,,,,,,2017_Jul_06_1508,59.9613724641,DRL_task,1,101,
2,0,2,0,,,6.48867583275,161,14,3,1363.88148308,5,,,,,,,2017_Jul_06_1508,59.9613724641,DRL_task,1,101,
2,0,2,0,,,7.15778112411,162,15,3,1371.03904605,5,,,,,,,2017_Jul_06_1508,59.9613724641,DRL_task,1,101,
2,0,2,0,,,7.40876603127,163,16,3,1378.46415901,5,,,,,,,2017_Jul_06_1508,59.9613724641,DRL_task,1,101,
2,0,2,0,,,7.07279586792,164,17,3,1385.52114606,5,,,,,,,2017_Jul_06_1508,59.9613724641,DRL_task,1,101,
2,0,2,0,,,6.79222607613,165,18,3,1392.31135607,5,,,,,,,2017_Jul_06_1508,59.9613724641,DRL_task,1,101,
2,0,2,0,,,6.73865485191,166,19,3,1399.05205703,5,,,,,,,2017_Jul_06_1508,59.9613724641,DRL_task,1,101,
2,0,2,0,,,6.2578151226,167,20,3,1405.30864406,5,,,,,,,2017_Jul_06_1508,59.9613724641,DRL_task,1,101,
2,0,2,0,,,9.84264707565,168,21,3,1415.15209198,5,,,,,,,2017_Jul_06_1508,59.9613724641,DRL_task,1,101,
2,0,2,0,,,9.40965986252,169,22,3,1424.56224298,5,,,,,,,2017_Jul_06_1508,59.9613724641,DRL_task,1,101,
2,0,2,0,,,4.70643615723,169,23,3,1429.2671721,5,,,,,,,2017_Jul_06_1508,59.9613724641,DRL_task,1,101,
2,0,2,0,,,8.24220895767,170,24,3,1437.50895405,5,,,,,,,2017_Jul_06_1508,59.9613724641,DRL_task,1,101,
2,0,2,0,,,7.18959188461,171,25,3,1444.69984293,5,,,,,,,2017_Jul_06_1508,59.9613724641,DRL_task,1,101,
2,0,2,0,,,8.35998797417,172,26,3,1453.05859494,5,,,,,,,2017_Jul_06_1508,59.9613724641,DRL_task,1,101,
2,0,2,0,,,7.34161806107,173,27,3,1460.39963508,5,,,,,,,2017_Jul_06_1508,59.9613724641,DRL_task,1,101,
2,0,2,0,,,8.37334895134,174,28,3,1468.77535391,5,,,,,,,2017_Jul_06_1508,59.9613724641,DRL_task,1,101,
2,0,2,0,,,6.92551517487,175,29,3,1475.69913197,5,,,,,,,2017_Jul_06_1508,59.9613724641,DRL_task,1,101,
2,0,2,0,,,6.85583877563,176,30,3,1482.55628896,5,,,,,,,2017_Jul_06_1508,59.9613724641,DRL_task,1,101,
2,0,2,0,,,5.9743142128,177,31,3,1488.52922606,5,,,,,,,2017_Jul_06_1508,59.9613724641,DRL_task,1,101,
2,0,2,0,,,7.12406086922,178,32,3,1495.6534431,5,,,,,,,2017_Jul_06_1508,59.9613724641,DRL_task,1,101,
2,0,2,0,,,5.18751597404,179,33,3,1500.84221411,5,,,,,,,2017_Jul_06_1508,59.9613724641,DRL_task,1,101,
2,0,2,0,,,5.87401008606,180,34,3,1506.71511793,5,,,,,,,2017_Jul_06_1508,59.9613724641,DRL_task,1,101,
2,0,2,0,,,7.17439889908,181,35,3,1513.90604591,5,,,,,,,2017_Jul_06_1508,59.9613724641,DRL_task,1,101,
2,0,2,0,,,7.10755610466,182,36,3,1520.99699306,5,,,,,,,2017_Jul_06_1508,59.9613724641,DRL_task,1,101,
2,0,2,0,,,6.02283000946,183,37,3,1527.01974297,5,,,,,,,2017_Jul_06_1508,59.9613724641,DRL_task,1,101,
2,0,2,0,,,5.6880300045,184,38,3,1532.70903492,5,,,,,,,2017_Jul_06_1508,59.9613724641,DRL_task,1,101,
2,0,2,0,,,5.50561094284,185,39,3,1538.21497989,5,,,,,,,2017_Jul_06_1508,59.9613724641,DRL_task,1,101,
2,0,2,0,,,7.12437009811,186,40,3,1545.33910012,5,,,,,,,2017_Jul_06_1508,59.9613724641,DRL_task,1,101,
2,0,2,0,,,4.37112283707,186,41,3,1549.71057391,5,,,,,,,2017_Jul_06_1508,59.9613724641,DRL_task,1,101,
2,0,2,0,,,10.1774611473,187,42,3,1559.88789296,5,,,,,,,2017_Jul_06_1508,59.9613724641,DRL_task,1,101,
2,0,2,0,,,16.2686920166,188,43,3,1576.1547091,5,,,,,,,2017_Jul_06_1508,59.9613724641,DRL_task,1,101,
2,0,2,0,,,13.4470310211,189,44,3,1589.60243201,5,,,,,,,2017_Jul_06_1508,59.9613724641,DRL_task,1,101,
2,0,2,0,,,7.05775094032,190,45,3,1596.65963197,5,,,,,,,2017_Jul_06_1508,59.9613724641,DRL_task,1,101,
2,0,2,0,,,9.45937800407,191,46,3,1606.1195631,5,,,,,,,2017_Jul_06_1508,59.9613724641,DRL_task,1,101,
2,0,2,0,,,7.52378487587,192,47,3,1613.64422393,5,,,,,,,2017_Jul_06_1508,59.9613724641,DRL_task,1,101,
2,0,2,0,,,4.80578303337,192,48,3,1618.44938397,5,,,,,,,2017_Jul_06_1508,59.9613724641,DRL_task,1,101,
2,0,2,0,,,8.89316701889,193,49,3,1627.34192896,5,,,,,,,2017_Jul_06_1508,59.9613724641,DRL_task,1,101,
2,0,2,0,,,7.45781493187,194,50,3,1634.79973912,5,,,,,,,2017_Jul_06_1508,59.9613724641,DRL_task,1,101,
2,0,2,0,,,7.69017601013,195,51,3,1642.49106693,5,,,,,,,2017_Jul_06_1508,59.9613724641,DRL_task,1,101,
2,0,2,0,,,7.49259114265,196,52,3,1649.98263192,5,,,,,,,2017_Jul_06_1508,59.9613724641,DRL_task,1,101,
2,0,2,0,,,8.07491803169,197,53,3,1658.05780411,5,,,,,,,2017_Jul_06_1508,59.9613724641,DRL_task,1,101,
2,0,2,0,,,6.55731987953,198,54,3,1664.61447191,5,,,,,,,2017_Jul_06_1508,59.9613724641,DRL_task,1,101,
2,0,2,0,,,6.22165298462,199,55,3,1670.83723211,5,,,,,,,2017_Jul_06_1508,59.9613724641,DRL_task,1,101,
2,0,2,0,,,6.54006314278,200,56,3,1677.37809706,5,,,,,,,2017_Jul_06_1508,59.9613724641,DRL_task,1,101,
2,0,2,0,,,7.77626395226,201,57,3,1685.15238905,5,,,,,,,2017_Jul_06_1508,59.9613724641,DRL_task,1,101,
2,0,2,0,,,9.34188294411,202,58,3,1694.49590111,5,,,,,,,2017_Jul_06_1508,59.9613724641,DRL_task,1,101,
2,0,2,0,,,13.1637239456,203,59,3,1707.65993309,5,,,,,,,2017_Jul_06_1508,59.9613724641,DRL_task,1,101,
2,0,2,0,,,8.19193315506,204,60,3,1715.88530207,5,,,,,,,2017_Jul_06_1508,59.9613724641,DRL_task,1,101,
2,0,2,0,,,12.0141088963,205,61,3,1727.864362,5,,,,,,,2017_Jul_06_1508,59.9613724641,DRL_task,1,101,
2,0,2,0,,,8.12502503395,206,62,3,1735.98975992,5,,,,,,,2017_Jul_06_1508,59.9613724641,DRL_task,1,101,
2,0,2,0,,,9.12612700462,207,63,3,1745.1160531,5,,,,,,,2017_Jul_06_1508,59.9613724641,DRL_task,1,101,
2,0,2,0,,,8.57600593567,208,64,3,1753.69151711,5,,,,,,,2017_Jul_06_1508,59.9613724641,DRL_task,1,101,
2,0,2,0,,,8.39076399803,209,65,3,1762.0838809,5,,,,,,,2017_Jul_06_1508,59.9613724641,DRL_task,1,101,
2,0,2,0,,,7.6413230896,210,66,3,1769.72522998,5,,,,,,,2017_Jul_06_1508,59.9613724641,DRL_task,1,101,
2,0,2,0,,,7.55929398537,211,67,3,1777.28297591,5,,,,,,,2017_Jul_06_1508,59.9613724641,DRL_task,1,101,
2,0,2,0,,,8.15853786469,212,68,3,1785.4416151,5,,,,,,,2017_Jul_06_1508,59.9613724641,DRL_task,1,101,
2,0,2,0,,,9.15829801559,213,69,3,1794.60134292,5,,,,,,,2017_Jul_06_1508,59.9613724641,DRL_task,1,101,
2,0,2,0,,,7.60966515541,214,70,3,1802.20914507,5,,,,,,,2017_Jul_06_1508,59.9613724641,DRL_task,1,101,
2,0,2,0,,,5.02189898491,215,71,3,1807.23131895,5,,,,,,,2017_Jul_06_1508,59.9613724641,DRL_task,1,101,
2,0,2,0,,,6.28997802734,216,72,3,1813.52083397,5,,,,,,,2017_Jul_06_1508,59.9613724641,DRL_task,1,101,
2,0,2,0,,,7.87346792221,217,73,3,1821.3962369,5,,,,,,,2017_Jul_06_1508,59.9613724641,DRL_task,1,101,
2,0,2,0,,,10.0272488594,218,74,3,1831.4231801,5,,,,,,,2017_Jul_06_1508,59.9613724641,DRL_task,1,101,
2,0,2,0,,,8.44329619408,219,75,3,1839.86567998,5,,,,,,,2017_Jul_06_1508,59.9613724641,DRL_task,1,101,
2,0,2,0,,,7.0562620163,220,76,3,1846.92306209,5,,,,,,,2017_Jul_06_1508,59.9613724641,DRL_task,1,101,
2,0,2,0,,,7.74149894714,221,77,3,1854.66450405,5,,,,,,,2017_Jul_06_1508,59.9613724641,DRL_task,1,101,
2,0,2,0,,,9.00954389572,222,78,3,1863.67403102,5,,,,,,,2017_Jul_06_1508,59.9613724641,DRL_task,1,101,
2,0,2,0,,,4.35585999489,222,79,3,1868.02851105,5,,,,,,,2017_Jul_06_1508,59.9613724641,DRL_task,1,101,
2,0,2,0,,,,,,,,,"['space', 'space', 'space', 'space', 'space', 'space', 'space', 'space', 'space', 'space', 'space', 'space', 'space', 'space', 'space', 'space', 'space', 'space', 'space', 'space', 'space', 'space', 'space', 'space', 'space', 'space', 'space', 'space', 'space', 'space', 'space', 'space', 'space', 'space', 'space', 'space', 'space', 'space', 'space', 'space', 'space', 'space', 'space', 'space', 'space', 'space', 'space', 'space', 'space', 'space', 'space', 'space', 'space', 'space', 'space', 'space', 'space', 'space', 'space', 'space', 'space', 'space', 'space', 'space', 'space', 'space', 'space', 'space', 'space', 'space', 'space', 'space', 'space', 'space', 'space', 'space', 'space', 'space', 'space']","[7.8864991664886475, 14.877010107040405, 23.23689103126526, 30.87699317932129, 38.002788066864014, 44.224430084228516, 50.43096613883972, 57.5068621635437, 62.64374113082886, 69.35080814361572, 75.926096200943, 82.6666431427002, 88.20559620857239, 94.6942720413208, 101.85205316543579, 109.26081919670105, 116.33361506462097, 123.12584114074707, 129.86449599266052, 136.1223111152649, 145.96495819091797, 155.37461805343628, 160.08105421066284, 168.32326316833496, 175.512855052948, 183.87284302711487, 191.21446108818054, 199.58781003952026, 206.513325214386, 213.36916399002075, 219.34347820281982, 226.46753907203674, 231.65505504608154, 237.5290651321411, 244.70346403121948, 251.81102013587952, 257.83385014533997, 263.5218801498413, 269.0274910926819, 276.1518611907959, 280.52298402786255, 290.7004451751709, 306.96913719177246, 320.4161682128906, 327.4739191532135, 336.9332971572876, 344.45708203315735, 349.2628650665283, 358.1560320854187, 365.6138470172882, 373.30402302742004, 380.79661417007446, 388.87153220176697, 395.4288520812988, 401.65050506591797, 408.19056820869446, 415.9668321609497, 425.30871510505676, 438.47243905067444, 446.66437220573425, 458.67848110198975, 466.80350613594055, 475.92963314056396, 484.5056390762329, 492.8964030742645, 500.53772616386414, 508.09702014923096, 516.255558013916, 525.4138560295105, 533.0235211849213, 538.0454201698303, 544.3353981971741, 552.2088661193848, 562.2361149787903, 570.6794111728668, 577.7356731891632, 585.4771721363068, 594.4867160320282, 598.8425760269165]",space,20.9741129875,,,2017_Jul_06_1508,59.9613724641,DRL_task,1,101,
3,0,3,0,,,4.77449393272,222,1,4,1896.15823603,5,,,,,,,2017_Jul_06_1508,59.9613724641,DRL_task,1,101,
3,0,3,0,,,8.35741305351,223,2,4,1904.51677299,5,,,,,,,2017_Jul_06_1508,59.9613724641,DRL_task,1,101,
3,0,3,0,,,7.07412695885,224,3,4,1911.59096408,5,,,,,,,2017_Jul_06_1508,59.9613724641,DRL_task,1,101,
3,0,3,0,,,6.80713295937,225,4,4,1918.39804101,5,,,,,,,2017_Jul_06_1508,59.9613724641,DRL_task,1,101,
3,0,3,0,,,4.93871808052,225,5,4,1923.33664107,5,,,,,,,2017_Jul_06_1508,59.9613724641,DRL_task,1,101,
3,0,3,0,,,14.2493300438,226,6,4,1937.58494401,5,,,,,,,2017_Jul_06_1508,59.9613724641,DRL_task,1,101,
3,0,3,0,,,10.7434749603,227,7,4,1948.32952595,5,,,,,,,2017_Jul_06_1508,59.9613724641,DRL_task,1,101,
3,0,3,0,,,8.52681207657,228,8,4,1956.85539508,5,,,,,,,2017_Jul_06_1508,59.9613724641,DRL_task,1,101,
3,0,3,0,,,7.94047284126,229,9,4,1964.79685593,5,,,,,,,2017_Jul_06_1508,59.9613724641,DRL_task,1,101,
3,0,3,0,,,7.69139409065,230,10,4,1972.4882741,5,,,,,,,2017_Jul_06_1508,59.9613724641,DRL_task,1,101,
3,0,3,0,,,7.05733704567,231,11,4,1979.54589891,5,,,,,,,2017_Jul_06_1508,59.9613724641,DRL_task,1,101,
3,0,3,0,,,6.07427883148,232,12,4,1985.61895895,5,,,,,,,2017_Jul_06_1508,59.9613724641,DRL_task,1,101,
3,0,3,0,,,9.52685618401,233,13,4,1995.14551306,5,,,,,,,2017_Jul_06_1508,59.9613724641,DRL_task,1,101,
3,0,3,0,,,8.1251308918,234,14,4,2003.27066803,5,,,,,,,2017_Jul_06_1508,59.9613724641,DRL_task,1,101,
3,0,3,0,,,7.55672502518,235,15,4,2010.82877612,5,,,,,,,2017_Jul_06_1508,59.9613724641,DRL_task,1,101,
3,0,3,0,,,7.42476606369,236,16,4,2018.25314498,5,,,,,,,2017_Jul_06_1508,59.9613724641,DRL_task,1,101,
3,0,3,0,,,7.22383403778,237,17,4,2025.47743511,5,,,,,,,2017_Jul_06_1508,59.9613724641,DRL_task,1,101,
3,0,3,0,,,13.0303328037,238,18,4,2038.55802512,5,,,,,,,2017_Jul_06_1508,59.9613724641,DRL_task,1,101,
3,0,3,0,,,8.24342918396,239,19,4,2046.74971509,5,,,,,,,2017_Jul_06_1508,59.9613724641,DRL_task,1,101,
3,0,3,0,,,7.59019398689,240,20,4,2054.34133697,5,,,,,,,2017_Jul_06_1508,59.9613724641,DRL_task,1,101,
3,0,3,0,,,7.99356198311,241,21,4,2062.33270597,5,,,,,,,2017_Jul_06_1508,59.9613724641,DRL_task,1,101,
3,0,3,0,,,6.55602383614,242,22,4,2068.92322397,5,,,,,,,2017_Jul_06_1508,59.9613724641,DRL_task,1,101,
3,0,3,0,,,16.0992770195,243,23,4,2084.98995399,5,,,,,,,2017_Jul_06_1508,59.9613724641,DRL_task,1,101,
3,0,3,0,,,10.5943520069,244,24,4,2095.58465195,5,,,,,,,2017_Jul_06_1508,59.9613724641,DRL_task,1,101,
3,0,3,0,,,8.17533612251,245,25,4,2103.75973201,5,,,,,,,2017_Jul_06_1508,59.9613724641,DRL_task,1,101,
3,0,3,0,,,6.6903090477,246,26,4,2110.45027709,5,,,,,,,2017_Jul_06_1508,59.9613724641,DRL_task,1,101,
3,0,3,0,,,5.95750784874,247,27,4,2116.40658998,5,,,,,,,2017_Jul_06_1508,59.9613724641,DRL_task,1,101,
3,0,3,0,,,7.95731806755,248,28,4,2124.36477304,5,,,,,,,2017_Jul_06_1508,59.9613724641,DRL_task,1,101,
3,0,3,0,,,7.70922207832,249,29,4,2132.07291603,5,,,,,,,2017_Jul_06_1508,59.9613724641,DRL_task,1,101,
3,0,3,0,,,7.33981394768,250,30,4,2139.41405201,5,,,,,,,2017_Jul_06_1508,59.9613724641,DRL_task,1,101,
3,0,3,0,,,8.51005601883,251,31,4,2147.92303991,5,,,,,,,2017_Jul_06_1508,59.9613724641,DRL_task,1,101,
3,0,3,0,,,5.68947196007,252,32,4,2153.61216092,5,,,,,,,2017_Jul_06_1508,59.9613724641,DRL_task,1,101,
3,0,3,0,,,7.69135689735,253,33,4,2161.3035531,5,,,,,,,2017_Jul_06_1508,59.9613724641,DRL_task,1,101,
3,0,3,0,,,5.95489907265,254,34,4,2167.25998497,5,,,,,,,2017_Jul_06_1508,59.9613724641,DRL_task,1,101,
3,0,3,0,,,6.32350993156,255,35,4,2173.58316994,5,,,,,,,2017_Jul_06_1508,59.9613724641,DRL_task,1,101,
3,0,3,0,,,5.35855913162,256,36,4,2178.95567489,5,,,,,,,2017_Jul_06_1508,59.9613724641,DRL_task,1,101,
3,0,3,0,,,6.62175893784,257,37,4,2185.56262398,5,,,,,,,2017_Jul_06_1508,59.9613724641,DRL_task,1,101,
3,0,3,0,,,6.03972291946,258,38,4,2191.60231209,5,,,,,,,2017_Jul_06_1508,59.9613724641,DRL_task,1,101,
3,0,3,0,,,15.8654241562,259,39,4,2207.46897602,5,,,,,,,2017_Jul_06_1508,59.9613724641,DRL_task,1,101,
3,0,3,0,,,9.54378199577,260,40,4,2217.01214004,5,,,,,,,2017_Jul_06_1508,59.9613724641,DRL_task,1,101,
3,0,3,0,,,8.4269528389,261,41,4,2225.43767309,5,,,,,,,2017_Jul_06_1508,59.9613724641,DRL_task,1,101,
3,0,3,0,,,7.54060411453,262,42,4,2232.97910595,5,,,,,,,2017_Jul_06_1508,59.9613724641,DRL_task,1,101,
3,0,3,0,,,7.35791897774,263,43,4,2240.33677292,5,,,,,,,2017_Jul_06_1508,59.9613724641,DRL_task,1,101,
3,0,3,0,,,6.65685796738,264,44,4,2246.99368095,5,,,,,,,2017_Jul_06_1508,59.9613724641,DRL_task,1,101,
3,0,3,0,,,7.29101705551,265,45,4,2254.28490996,5,,,,,,,2017_Jul_06_1508,59.9613724641,DRL_task,1,101,
3,0,3,0,,,6.49242997169,266,46,4,2260.79173899,5,,,,,,,2017_Jul_06_1508,59.9613724641,DRL_task,1,101,
3,0,3,0,,,7.5048251152,267,47,4,2268.28280902,5,,,,,,,2017_Jul_06_1508,59.9613724641,DRL_task,1,101,
3,0,3,0,,,6.94020390511,268,48,4,2275.24028611,5,,,,,,,2017_Jul_06_1508,59.9613724641,DRL_task,1,101,
3,0,3,0,,,8.26010298729,269,49,4,2283.48205304,5,,,,,,,2017_Jul_06_1508,59.9613724641,DRL_task,1,101,
3,0,3,0,,,6.07288694382,270,50,4,2289.55531693,5,,,,,,,2017_Jul_06_1508,59.9613724641,DRL_task,1,101,
3,0,3,0,,,6.59029817581,271,51,4,2296.14558601,5,,,,,,,2017_Jul_06_1508,59.9613724641,DRL_task,1,101,
3,0,3,0,,,8.89141488075,272,52,4,2305.03813505,5,,,,,,,2017_Jul_06_1508,59.9613724641,DRL_task,1,101,
3,0,3,0,,,6.60841393471,273,53,4,2311.645046,5,,,,,,,2017_Jul_06_1508,59.9613724641,DRL_task,1,101,
3,0,3,0,,,7.50771212578,274,54,4,2319.15308499,5,,,,,,,2017_Jul_06_1508,59.9613724641,DRL_task,1,101,
3,0,3,0,,,6.37207102776,275,55,4,2325.54324698,5,,,,,,,2017_Jul_06_1508,59.9613724641,DRL_task,1,101,
3,0,3,0,,,4.80632781982,275,56,4,2330.33153105,5,,,,,,,2017_Jul_06_1508,59.9613724641,DRL_task,1,101,
3,0,3,0,,,7.59131503105,276,57,4,2337.92293501,5,,,,,,,2017_Jul_06_1508,59.9613724641,DRL_task,1,101,
3,0,3,0,,,7.15649008751,277,58,4,2345.0801661,5,,,,,,,2017_Jul_06_1508,59.9613724641,DRL_task,1,101,
3,0,3,0,,,6.07450890541,278,59,4,2351.15342402,5,,,,,,,2017_Jul_06_1508,59.9613724641,DRL_task,1,101,
3,0,3,0,,,6.13939714432,279,60,4,2357.29321599,5,,,,,,,2017_Jul_06_1508,59.9613724641,DRL_task,1,101,
3,0,3,0,,,6.35563492775,280,61,4,2363.64973497,5,,,,,,,2017_Jul_06_1508,59.9613724641,DRL_task,1,101,
3,0,3,0,,,5.65567708015,281,62,4,2369.30584812,5,,,,,,,2017_Jul_06_1508,59.9613724641,DRL_task,1,101,
3,0,3,0,,,5.23904585838,282,63,4,2374.54474306,5,,,,,,,2017_Jul_06_1508,59.9613724641,DRL_task,1,101,
3,0,3,0,,,4.75582909584,282,64,4,2379.29970002,5,,,,,,,2017_Jul_06_1508,59.9613724641,DRL_task,1,101,
3,0,3,0,,,6.08997797966,283,65,4,2385.38944101,5,,,,,,,2017_Jul_06_1508,59.9613724641,DRL_task,1,101,
3,0,3,0,,,6.957447052,284,66,4,2392.36355591,5,,,,,,,2017_Jul_06_1508,59.9613724641,DRL_task,1,101,
3,0,3,0,,,7.99041700363,285,67,4,2400.33857799,5,,,,,,,2017_Jul_06_1508,59.9613724641,DRL_task,1,101,
3,0,3,0,,,7.67490983009,286,68,4,2408.01309991,5,,,,,,,2017_Jul_06_1508,59.9613724641,DRL_task,1,101,
3,0,3,0,,,6.49003911018,287,69,4,2414.50345612,5,,,,,,,2017_Jul_06_1508,59.9613724641,DRL_task,1,101,
3,0,3,0,,,4.97304606438,287,70,4,2419.47529101,5,,,,,,,2017_Jul_06_1508,59.9613724641,DRL_task,1,101,
3,0,3,0,,,9.09332084656,288,71,4,2428.56805611,5,,,,,,,2017_Jul_06_1508,59.9613724641,DRL_task,1,101,
3,0,3,0,,,8.20838499069,289,72,4,2436.77660298,5,,,,,,,2017_Jul_06_1508,59.9613724641,DRL_task,1,101,
3,0,3,0,,,8.30747199059,290,73,4,2445.0853641,5,,,,,,,2017_Jul_06_1508,59.9613724641,DRL_task,1,101,
3,0,3,0,,,10.2117481232,291,74,4,2455.29630208,5,,,,,,,2017_Jul_06_1508,59.9613724641,DRL_task,1,101,
3,0,3,0,,,9.61058688164,292,75,4,2464.90621495,5,,,,,,,2017_Jul_06_1508,59.9613724641,DRL_task,1,101,
3,0,3,0,,,6.48880600929,293,76,4,2471.39656591,5,,,,,,,2017_Jul_06_1508,59.9613724641,DRL_task,1,101,
3,0,3,0,,,6.74179816246,294,77,4,2478.1537149,5,,,,,,,2017_Jul_06_1508,59.9613724641,DRL_task,1,101,
3,0,3,0,,,7.67347884178,295,78,4,2485.82825899,5,,,,,,,2017_Jul_06_1508,59.9613724641,DRL_task,1,101,
3,0,3,0,,,0.233391046524,295,79,4,2486.04522395,5,,,,,,,2017_Jul_06_1508,59.9613724641,DRL_task,1,101,
3,0,3,0,,,,,,,,,"['space', 'space', 'space', 'space', 'space', 'space', 'space', 'space', 'space', 'space', 'space', 'space', 'space', 'space', 'space', 'space', 'space', 'space', 'space', 'space', 'space', 'space', 'space', 'space', 'space', 'space', 'space', 'space', 'space', 'space', 'space', 'space', 'space', 'space', 'space', 'space', 'space', 'space', 'space', 'space', 'space', 'space', 'space', 'space', 'space', 'space', 'space', 'space', 'space', 'space', 'space', 'space', 'space', 'space', 'space', 'space', 'space', 'space', 'space', 'space', 'space', 'space', 'space', 'space', 'space', 'space', 'space', 'space', 'space', 'space', 'space', 'space', 'space', 'space', 'space', 'space', 'space', 'space', 'space']","[4.774493932723999, 13.131906986236572, 20.206033945083618, 27.013166904449463, 31.951884984970093, 46.20121502876282, 56.944689989089966, 65.47150206565857, 73.41197490692139, 81.10336899757385, 88.16070604324341, 94.23498487472534, 103.76184105873108, 111.886971950531, 119.44369697570801, 126.8684630393982, 134.09229707717896, 147.12262988090515, 155.3660590648651, 162.9562530517578, 170.94981503486633, 177.5058388710022, 193.60511589050293, 204.19946789741516, 212.37480401992798, 219.06511306762695, 225.02262091636658, 232.97993898391724, 240.6891610622406, 248.0289750099182, 256.53903102874756, 262.2285029888153, 269.91985988616943, 275.8747589588165, 282.19826889038086, 287.5568280220032, 294.17858695983887, 300.218309879303, 316.08373403549194, 325.62751603126526, 334.05446887016296, 341.59507298469543, 348.95299196243286, 355.60984992980957, 362.90086698532104, 369.393296957016, 376.89812207221985, 383.83832597732544, 392.09842896461487, 398.171315908432, 404.7616140842438, 413.65302896499634, 420.261442899704, 427.7691550254822, 434.1412260532379, 438.94755387306213, 446.53886890411377, 453.6953589916229, 459.7698678970337, 465.9092650413513, 472.26489996910095, 477.92057704925537, 483.15962290763855, 487.915452003479, 494.00542998313904, 500.962877035141, 508.9532940387726, 516.628203868866, 523.1182429790497, 528.0912890434265, 537.1846098899841, 545.3929948806763, 553.7004668712616, 563.9122149944305, 573.5228018760681, 580.0116078853607, 586.753406047821, 594.4268848896027, 594.6602759361267]",space,21.8912551403,,,2017_Jul_06_1508,59.9613724641,DRL_task,1,101,
4,0,4,0,,,9.00777983665,296,1,5,2523.51791501,5,,,,,,,2017_Jul_06_1508,59.9613724641,DRL_task,1,101,
4,0,4,0,,,7.37417817116,297,2,5,2530.90918207,5,,,,,,,2017_Jul_06_1508,59.9613724641,DRL_task,1,101,
4,0,4,0,,,7.57367491722,298,3,5,2538.46740508,5,,,,,,,2017_Jul_06_1508,59.9613724641,DRL_task,1,101,
4,0,4,0,,,6.00629401207,299,4,5,2544.47352505,5,,,,,,,2017_Jul_06_1508,59.9613724641,DRL_task,1,101,
4,0,4,0,,,5.0566380024,300,5,5,2549.52874494,5,,,,,,,2017_Jul_06_1508,59.9613724641,DRL_task,1,101,
4,0,4,0,,,5.9548459053,301,6,5,2555.48502207,5,,,,,,,2017_Jul_06_1508,59.9613724641,DRL_task,1,101,
4,0,4,0,,,10.7780959606,302,7,5,2566.27946901,5,,,,,,,2017_Jul_06_1508,59.9613724641,DRL_task,1,101,
4,0,4,0,,,7.62596297264,303,8,5,2573.88773704,5,,,,,,,2017_Jul_06_1508,59.9613724641,DRL_task,1,101,
4,0,4,0,,,8.75798416138,304,9,5,2582.64698505,5,,,,,,,2017_Jul_06_1508,59.9613724641,DRL_task,1,101,
4,0,4,0,,,6.27341485023,305,10,5,2588.91998196,5,,,,,,,2017_Jul_06_1508,59.9613724641,DRL_task,1,101,
4,0,4,0,,,6.07401800156,306,11,5,2594.99304199,5,,,,,,,2017_Jul_06_1508,59.9613724641,DRL_task,1,101,
4,0,4,0,,,6.17195916176,307,12,5,2601.16621709,5,,,,,,,2017_Jul_06_1508,59.9613724641,DRL_task,1,101,
4,0,4,0,,,8.59344792366,308,13,5,2609.75877905,5,,,,,,,2017_Jul_06_1508,59.9613724641,DRL_task,1,101,
4,0,4,0,,,6.95614790916,309,14,5,2616.71620202,5,,,,,,,2017_Jul_06_1508,59.9613724641,DRL_task,1,101,
4,0,4,0,,,6.02452111244,310,15,5,2622.75568104,5,,,,,,,2017_Jul_06_1508,59.9613724641,DRL_task,1,101,
4,0,4,0,,,6.57346391678,311,16,5,2629.31246901,5,,,,,,,2017_Jul_06_1508,59.9613724641,DRL_task,1,101,
4,0,4,0,,,5.95470118523,312,17,5,2635.2689631,5,,,,,,,2017_Jul_06_1508,59.9613724641,DRL_task,1,101,
4,0,4,0,,,4.98980379105,312,18,5,2640.27423811,5,,,,,,,2017_Jul_06_1508,59.9613724641,DRL_task,1,101,
4,0,4,0,,,9.62712216377,313,19,5,2649.90108609,5,,,,,,,2017_Jul_06_1508,59.9613724641,DRL_task,1,101,
4,0,4,0,,,10.6100628376,314,20,5,2660.49535203,5,,,,,,,2017_Jul_06_1508,59.9613724641,DRL_task,1,101,
4,0,4,0,,,11.1951220036,315,21,5,2671.69041991,5,,,,,,,2017_Jul_06_1508,59.9613724641,DRL_task,1,101,
4,0,4,0,,,8.5768020153,316,22,5,2680.26612401,5,,,,,,,2017_Jul_06_1508,59.9613724641,DRL_task,1,101,
4,0,4,0,,,5.00510907173,317,23,5,2685.27151489,5,,,,,,,2017_Jul_06_1508,59.9613724641,DRL_task,1,101,
4,0,4,0,,,5.85500597954,318,24,5,2691.12768006,5,,,,,,,2017_Jul_06_1508,59.9613724641,DRL_task,1,101,
4,0,4,0,,,5.62381315231,319,25,5,2696.75010395,5,,,,,,,2017_Jul_06_1508,59.9613724641,DRL_task,1,101,
4,0,4,0,,,6.55569076538,320,26,5,2703.30714703,5,,,,,,,2017_Jul_06_1508,59.9613724641,DRL_task,1,101,
4,0,4,0,,,9.79358005524,321,27,5,2713.10056901,5,,,,,,,2017_Jul_06_1508,59.9613724641,DRL_task,1,101,
4,0,4,0,,,8.67583417892,322,28,5,2721.7766571,5,,,,,,,2017_Jul_06_1508,59.9613724641,DRL_task,1,101,
4,0,4,0,,,8.27682089806,323,29,5,2730.07116294,5,,,,,,,2017_Jul_06_1508,59.9613724641,DRL_task,1,101,
4,0,4,0,,,6.32363700867,324,30,5,2736.39164305,5,,,,,,,2017_Jul_06_1508,59.9613724641,DRL_task,1,101,
4,0,4,0,,,6.10486888885,325,31,5,2742.48157597,5,,,,,,,2017_Jul_06_1508,59.9613724641,DRL_task,1,101,
4,0,4,0,,,5.9909081459,326,32,5,2748.48812389,5,,,,,,,2017_Jul_06_1508,59.9613724641,DRL_task,1,101,
4,0,4,0,,,6.03823685646,327,33,5,2754.51112294,5,,,,,,,2017_Jul_06_1508,59.9613724641,DRL_task,1,101,
4,0,4,0,,,5.75747418404,328,34,5,2760.28387499,5,,,,,,,2017_Jul_06_1508,59.9613724641,DRL_task,1,101,
4,0,4,0,,,3.35171079636,328,35,5,2763.63719702,5,,,,,,,2017_Jul_06_1508,59.9613724641,DRL_task,1,101,
4,0,4,0,,,3.47037506104,328,36,5,2767.09090996,5,,,,,,,2017_Jul_06_1508,59.9613724641,DRL_task,1,101,
4,0,4,0,,,7.45853114128,329,37,5,2774.56541896,5,,,,,,,2017_Jul_06_1508,59.9613724641,DRL_task,1,101,
4,0,4,0,,,6.10610795021,330,38,5,2780.65525603,5,,,,,,,2017_Jul_06_1508,59.9613724641,DRL_task,1,101,
4,0,4,0,,,5.38890790939,331,39,5,2786.04389,5,,,,,,,2017_Jul_06_1508,59.9613724641,DRL_task,1,101,
4,0,4,0,,,7.7092051506,332,40,5,2793.7857461,5,,,,,,,2017_Jul_06_1508,59.9613724641,DRL_task,1,101,
4,0,4,0,,,6.5725748539,333,41,5,2800.3259089,5,,,,,,,2017_Jul_06_1508,59.9613724641,DRL_task,1,101,
4,0,4,0,,,7.84172105789,334,42,5,2808.16729212,5,,,,,,,2017_Jul_06_1508,59.9613724641,DRL_task,1,101,
4,0,4,0,,,6.7569630146,335,43,5,2814.924649,5,,,,,,,2017_Jul_06_1508,59.9613724641,DRL_task,1,101,
4,0,4,0,,,8.54387903214,336,44,5,2823.48313212,5,,,,,,,2017_Jul_06_1508,59.9613724641,DRL_task,1,101,
4,0,4,0,,,11.9293780327,337,45,5,2835.41269398,5,,,,,,,2017_Jul_06_1508,59.9613724641,DRL_task,1,101,
4,0,4,0,,,9.99335694313,338,46,5,2845.40650105,5,,,,,,,2017_Jul_06_1508,59.9613724641,DRL_task,1,101,
4,0,4,0,,,6.15624785423,339,47,5,2851.56318212,5,,,,,,,2017_Jul_06_1508,59.9613724641,DRL_task,1,101,
4,0,4,0,,,7.07417416573,340,48,5,2858.63732409,5,,,,,,,2017_Jul_06_1508,59.9613724641,DRL_task,1,101,
4,0,4,0,,,9.14189505577,341,49,5,2867.78008103,5,,,,,,,2017_Jul_06_1508,59.9613724641,DRL_task,1,101,
4,0,4,0,,,9.89487576485,342,50,5,2877.69049501,5,,,,,,,2017_Jul_06_1508,59.9613724641,DRL_task,1,101,
4,0,4,0,,,7.33993411064,343,51,5,2885.01516795,5,,,,,,,2017_Jul_06_1508,59.9613724641,DRL_task,1,101,
4,0,4,0,,,7.02398490906,344,52,5,2892.02245903,5,,,,,,,2017_Jul_06_1508,59.9613724641,DRL_task,1,101,
4,0,4,0,,,7.07442903519,345,53,5,2899.09637499,5,,,,,,,2017_Jul_06_1508,59.9613724641,DRL_task,1,101,
4,0,4,0,,,7.39188408852,346,54,5,2906.50439501,5,,,,,,,2017_Jul_06_1508,59.9613724641,DRL_task,1,101,
4,0,4,0,,,6.34021091461,347,55,5,2912.84419298,5,,,,,,,2017_Jul_06_1508,59.9613724641,DRL_task,1,101,
4,0,4,0,,,4.87170314789,347,56,5,2917.73265409,5,,,,,,,2017_Jul_06_1508,59.9613724641,DRL_task,1,101,
4,0,4,0,,,9.64226388931,348,57,5,2927.34285998,5,,,,,,,2017_Jul_06_1508,59.9613724641,DRL_task,1,101,
4,0,4,0,,,8.56057095528,349,58,5,2935.91864491,5,,,,,,,2017_Jul_06_1508,59.9613724641,DRL_task,1,101,
4,0,4,0,,,9.85887718201,350,59,5,2945.7622931,5,,,,,,,2017_Jul_06_1508,59.9613724641,DRL_task,1,101,
4,0,4,0,,,11.0293109417,351,60,5,2956.8165369,5,,,,,,,2017_Jul_06_1508,59.9613724641,DRL_task,1,101,
4,0,4,0,,,9.57592391968,352,61,5,2966.3671329,5,,,,,,,2017_Jul_06_1508,59.9613724641,DRL_task,1,101,
4,0,4,0,,,8.17525696754,353,62,5,2974.54240704,5,,,,,,,2017_Jul_06_1508,59.9613724641,DRL_task,1,101,
4,0,4,0,,,6.80814003944,354,63,5,2981.36624408,5,,,,,,,2017_Jul_06_1508,59.9613724641,DRL_task,1,101,
4,0,4,0,,,7.22325706482,355,64,5,2988.59065294,5,,,,,,,2017_Jul_06_1508,59.9613724641,DRL_task,1,101,
4,0,4,0,,,8.07500100136,356,65,5,2996.66597605,5,,,,,,,2017_Jul_06_1508,59.9613724641,DRL_task,1,101,
4,0,4,0,,,0.183546066284,356,66,5,2996.83274412,5,,,,,,,2017_Jul_06_1508,59.9613724641,DRL_task,1,101,
4,0,4,0,,,9.34323883057,357,67,5,3006.17568398,5,,,,,,,2017_Jul_06_1508,59.9613724641,DRL_task,1,101,
4,0,4,0,,,7.60792803764,358,68,5,3013.78386307,5,,,,,,,2017_Jul_06_1508,59.9613724641,DRL_task,1,101,
4,0,4,0,,,7.90843105316,359,69,5,3021.6919899,5,,,,,,,2017_Jul_06_1508,59.9613724641,DRL_task,1,101,
4,0,4,0,,,9.51096892357,360,70,5,3031.21901703,5,,,,,,,2017_Jul_06_1508,59.9613724641,DRL_task,1,101,
4,0,4,0,,,7.25762200356,361,71,5,3038.47675991,5,,,,,,,2017_Jul_06_1508,59.9613724641,DRL_task,1,101,
4,0,4,0,,,7.50686097145,362,72,5,3045.96779108,5,,,,,,,2017_Jul_06_1508,59.9613724641,DRL_task,1,101,
4,0,4,0,,,7.19103717804,363,73,5,3053.1585319,5,,,,,,,2017_Jul_06_1508,59.9613724641,DRL_task,1,101,
4,0,4,0,,,8.09189486504,364,74,5,3061.25036907,5,,,,,,,2017_Jul_06_1508,59.9613724641,DRL_task,1,101,
4,0,4,0,,,7.17502713203,365,75,5,3068.44151402,5,,,,,,,2017_Jul_06_1508,59.9613724641,DRL_task,1,101,
4,0,4,0,,,5.03922486305,366,76,5,3073.47959709,5,,,,,,,2017_Jul_06_1508,59.9613724641,DRL_task,1,101,
4,0,4,0,,,5.57095599174,367,77,5,3079.05266309,5,,,,,,,2017_Jul_06_1508,59.9613724641,DRL_task,1,101,
4,0,4,0,,,5.77415800095,368,78,5,3084.8253901,5,,,,,,,2017_Jul_06_1508,59.9613724641,DRL_task,1,101,
4,0,4,0,,,4.85366106033,368,79,5,3089.6636889,5,,,,,,,2017_Jul_06_1508,59.9613724641,DRL_task,1,101,
4,0,4,0,,,9.09446191788,369,80,5,3098.77326393,5,,,,,,,2017_Jul_06_1508,59.9613724641,DRL_task,1,101,
4,0,4,0,,,10.9766070843,370,81,5,3109.73482704,5,,,,,,,2017_Jul_06_1508,59.9613724641,DRL_task,1,101,
4,0,4,0,,,,,,,,,"['space', 'space', 'space', 'space', 'space', 'space', 'space', 'space', 'space', 'space', 'space', 'space', 'space', 'space', 'space', 'space', 'space', 'space', 'space', 'space', 'space', 'space', 'space', 'space', 'space', 'space', 'space', 'space', 'space', 'space', 'space', 'space', 'space', 'space', 'space', 'space', 'space', 'space', 'space', 'space', 'space', 'space', 'space', 'space', 'space', 'space', 'space', 'space', 'space', 'space', 'space', 'space', 'space', 'space', 'space', 'space', 'space', 'space', 'space', 'space', 'space', 'space', 'space', 'space', 'space', 'space', 'space', 'space', 'space', 'space', 'space', 'space', 'space', 'space', 'space', 'space', 'space', 'space', 'space', 'space', 'space']","[9.007779836654663, 16.3819580078125, 23.95563292503357, 29.96192693710327, 35.0185649394989, 40.973410844802856, 51.75150680541992, 59.37746977806091, 68.13545393943787, 74.40886878967285, 80.48288679122925, 86.65484595298767, 95.24829387664795, 102.20444178581238, 108.2289628982544, 114.80242681503296, 120.7571280002594, 125.74693179130554, 135.37405395507812, 145.98411679267883, 157.17923879623413, 165.7560408115387, 170.76114988327026, 176.61615586280823, 182.23996901512146, 188.79565978050232, 198.58923983573914, 207.2650740146637, 215.54189491271973, 221.86553192138672, 227.9704008102417, 233.96130895614624, 239.9995458126068, 245.75701999664307, 249.10873079299927, 252.57910585403442, 260.03763699531555, 266.1437449455261, 271.53265285491943, 279.2418580055237, 285.8144328594208, 293.6561539173126, 300.4131169319153, 308.9569959640503, 320.8863739967346, 330.8797309398651, 337.0359787940979, 344.1101529598236, 353.2520480155945, 363.1469237804413, 370.48685789108276, 377.5108428001404, 384.58527183532715, 391.9771559238434, 398.3173668384552, 403.1890699863434, 412.8313338756561, 421.3919048309326, 431.25078201293945, 442.2800929546356, 451.85601687431335, 460.0312738418579, 466.8394138813019, 474.0626709461212, 482.13767194747925, 482.3212180137634, 491.66445684432983, 499.27238488197327, 507.1808159351349, 516.6917848587036, 523.9494068622589, 531.4562678337097, 538.6473050117493, 546.7391998767853, 553.9142270088196, 558.953451871872, 564.524407863617, 570.298565864563, 575.1522269248962, 584.2466888427734, 595.2232959270477]",space,28.3149280548,,,2017_Jul_06_1508,59.9613724641,DRL_task,1,101,
5,0,5,0,,,5.29804396629,371,1,6,3149.35942793,5,,,,,,,2017_Jul_06_1508,59.9613724641,DRL_task,1,101,
5,0,5,0,,,5.75724196434,372,2,6,3155.11602807,5,,,,,,,2017_Jul_06_1508,59.9613724641,DRL_task,1,101,
5,0,5,0,,,5.17107009888,373,3,6,3160.27136993,5,,,,,,,2017_Jul_06_1508,59.9613724641,DRL_task,1,101,
5,0,5,0,,,5.63920688629,374,4,6,3165.9106009,5,,,,,,,2017_Jul_06_1508,59.9613724641,DRL_task,1,101,
5,0,5,0,,,5.83946108818,375,5,6,3171.766397,5,,,,,,,2017_Jul_06_1508,59.9613724641,DRL_task,1,101,
5,0,5,0,,,5.10544586182,376,6,6,3176.87224793,5,,,,,,,2017_Jul_06_1508,59.9613724641,DRL_task,1,101,
5,0,5,0,,,6.45680809021,377,7,6,3183.31237006,5,,,,,,,2017_Jul_06_1508,59.9613724641,DRL_task,1,101,
5,0,5,0,,,6.23989200592,378,8,6,3189.56888199,5,,,,,,,2017_Jul_06_1508,59.9613724641,DRL_task,1,101,
5,0,5,0,,,8.37687397003,379,9,6,3197.94439697,5,,,,,,,2017_Jul_06_1508,59.9613724641,DRL_task,1,101,
5,0,5,0,,,7.64135098457,380,10,6,3205.58574009,5,,,,,,,2017_Jul_06_1508,59.9613724641,DRL_task,1,101,
5,0,5,0,,,8.25860309601,381,11,6,3213.84432912,5,,,,,,,2017_Jul_06_1508,59.9613724641,DRL_task,1,101,
5,0,5,0,,,7.74146199226,382,12,6,3221.58573103,5,,,,,,,2017_Jul_06_1508,59.9613724641,DRL_task,1,101,
5,0,5,0,,,9.84264802933,383,13,6,3231.42942595,5,,,,,,,2017_Jul_06_1508,59.9613724641,DRL_task,1,101,
5,0,5,0,,,7.5411298275,384,14,6,3238.97091103,5,,,,,,,2017_Jul_06_1508,59.9613724641,DRL_task,1,101,
5,0,5,0,,,7.17618298531,385,15,6,3246.14494705,5,,,,,,,2017_Jul_06_1508,59.9613724641,DRL_task,1,101,
5,0,5,0,,,6.93856501579,386,16,6,3253.06897497,5,,,,,,,2017_Jul_06_1508,59.9613724641,DRL_task,1,101,
5,0,5,0,,,8.04363918304,387,17,6,3261.12741303,5,,,,,,,2017_Jul_06_1508,59.9613724641,DRL_task,1,101,
5,0,5,0,,,6.92353200912,388,18,6,3268.051476,5,,,,,,,2017_Jul_06_1508,59.9613724641,DRL_task,1,101,
5,0,5,0,,,7.97502493858,389,19,6,3276.02665401,5,,,,,,,2017_Jul_06_1508,59.9613724641,DRL_task,1,101,
5,0,5,0,,,7.47436594963,390,20,6,3283.50051212,5,,,,,,,2017_Jul_06_1508,59.9613724641,DRL_task,1,101,
5,0,5,0,,,6.83919906616,391,21,6,3290.3414681,5,,,,,,,2017_Jul_06_1508,59.9613724641,DRL_task,1,101,
5,0,5,0,,,8.09321403503,392,22,6,3298.43331289,5,,,,,,,2017_Jul_06_1508,59.9613724641,DRL_task,1,101,
5,0,5,0,,,9.07650995255,393,23,6,3307.50966311,5,,,,,,,2017_Jul_06_1508,59.9613724641,DRL_task,1,101,
5,0,5,0,,,9.07617092133,394,24,6,3316.58600402,5,,,,,,,2017_Jul_06_1508,59.9613724641,DRL_task,1,101,
5,0,5,0,,,6.33836007118,395,25,6,3322.90920305,5,,,,,,,2017_Jul_06_1508,59.9613724641,DRL_task,1,101,
5,0,5,0,,,3.23711395264,395,26,6,3326.16251206,5,,,,,,,2017_Jul_06_1508,59.9613724641,DRL_task,1,101,
5,0,5,0,,,8.87580108643,396,27,6,3335.03826499,5,,,,,,,2017_Jul_06_1508,59.9613724641,DRL_task,1,101,
5,0,5,0,,,7.92637586594,397,28,6,3342.96368909,5,,,,,,,2017_Jul_06_1508,59.9613724641,DRL_task,1,101,
5,0,5,0,,,6.9389359951,398,29,6,3349.90429902,5,,,,,,,2017_Jul_06_1508,59.9613724641,DRL_task,1,101,
5,0,5,0,,,8.42715907097,399,30,6,3358.329494,5,,,,,,,2017_Jul_06_1508,59.9613724641,DRL_task,1,101,
5,0,5,0,,,8.25900197029,400,31,6,3366.58838296,5,,,,,,,2017_Jul_06_1508,59.9613724641,DRL_task,1,101,
5,0,5,0,,,6.75729203224,401,32,6,3373.3450911,5,,,,,,,2017_Jul_06_1508,59.9613724641,DRL_task,1,101,
5,0,5,0,,,5.13870596886,402,33,6,3378.48463511,5,,,,,,,2017_Jul_06_1508,59.9613724641,DRL_task,1,101,
5,0,5,0,,,5.42235898972,403,34,6,3383.90655398,5,,,,,,,2017_Jul_06_1508,59.9613724641,DRL_task,1,101,
5,0,5,0,,,6.22322392464,404,35,6,3390.12982011,5,,,,,,,2017_Jul_06_1508,59.9613724641,DRL_task,1,101,
5,0,5,0,,,6.75714921951,405,36,6,3396.88697791,5,,,,,,,2017_Jul_06_1508,59.9613724641,DRL_task,1,101,
5,0,5,0,,,6.49013090134,406,37,6,3403.37713408,5,,,,,,,2017_Jul_06_1508,59.9613724641,DRL_task,1,101,
5,0,5,0,,,6.20624303818,407,38,6,3409.58320093,5,,,,,,,2017_Jul_06_1508,59.9613724641,DRL_task,1,101,
5,0,5,0,,,5.75480604172,408,39,6,3415.33976007,5,,,,,,,2017_Jul_06_1508,59.9613724641,DRL_task,1,101,
5,0,5,0,,,6.10783195496,409,40,6,3421.44636798,5,,,,,,,2017_Jul_06_1508,59.9613724641,DRL_task,1,101,
5,0,5,0,,,5.22232985497,410,41,6,3426.66833496,5,,,,,,,2017_Jul_06_1508,59.9613724641,DRL_task,1,101,
5,0,5,0,,,6.40492200851,411,42,6,3433.07521892,5,,,,,,,2017_Jul_06_1508,59.9613724641,DRL_task,1,101,
5,0,5,0,,,7.87519311905,412,43,6,3440.95005512,5,,,,,,,2017_Jul_06_1508,59.9613724641,DRL_task,1,101,
5,0,5,0,,,8.14192795753,413,44,6,3449.09208298,5,,,,,,,2017_Jul_06_1508,59.9613724641,DRL_task,1,101,
5,0,5,0,,,8.92742800713,414,45,6,3458.017555,5,,,,,,,2017_Jul_06_1508,59.9613724641,DRL_task,1,101,
5,0,5,0,,,8.0237569809,415,46,6,3466.04302692,5,,,,,,,2017_Jul_06_1508,59.9613724641,DRL_task,1,101,
5,0,5,0,,,9.15942907333,416,47,6,3475.20288491,5,,,,,,,2017_Jul_06_1508,59.9613724641,DRL_task,1,101,
5,0,5,0,,,7.72465205193,417,48,6,3482.92766309,5,,,,,,,2017_Jul_06_1508,59.9613724641,DRL_task,1,101,
5,0,5,0,,,9.74366497993,418,49,6,3492.67121911,5,,,,,,,2017_Jul_06_1508,59.9613724641,DRL_task,1,101,
5,0,5,0,,,8.10873985291,419,50,6,3500.7796061,5,,,,,,,2017_Jul_06_1508,59.9613724641,DRL_task,1,101,
5,0,5,0,,,6.05789017677,420,51,6,3506.83615398,5,,,,,,,2017_Jul_06_1508,59.9613724641,DRL_task,1,101,
5,0,5,0,,,8.07557201385,421,52,6,3514.91116095,5,,,,,,,2017_Jul_06_1508,59.9613724641,DRL_task,1,101,
5,0,5,0,,,4.81960177422,421,53,6,3519.73306203,5,,,,,,,2017_Jul_06_1508,59.9613724641,DRL_task,1,101,
5,0,5,0,,,9.22663521767,422,54,6,3528.95926404,5,,,,,,,2017_Jul_06_1508,59.9613724641,DRL_task,1,101,
5,0,5,0,,,8.87595582008,423,55,6,3537.83527303,5,,,,,,,2017_Jul_06_1508,59.9613724641,DRL_task,1,101,
5,0,5,0,,,8.04157996178,424,56,6,3545.8772161,5,,,,,,,2017_Jul_06_1508,59.9613724641,DRL_task,1,101,
5,0,5,0,,,8.56052708626,425,57,6,3554.43605995,5,,,,,,,2017_Jul_06_1508,59.9613724641,DRL_task,1,101,
5,0,5,0,,,8.87620210648,426,58,6,3563.31208992,5,,,,,,,2017_Jul_06_1508,59.9613724641,DRL_task,1,101,
5,0,5,0,,,9.94232988358,427,59,6,3573.25589705,5,,,,,,,2017_Jul_06_1508,59.9613724641,DRL_task,1,101,
5,0,5,0,,,9.20972800255,428,60,6,3582.46559,5,,,,,,,2017_Jul_06_1508,59.9613724641,DRL_task,1,101,
5,0,5,0,,,7.07573008537,429,61,6,3589.53972507,5,,,,,,,2017_Jul_06_1508,59.9613724641,DRL_task,1,101,
5,0,5,0,,,8.70888090134,430,62,6,3598.2489779,5,,,,,,,2017_Jul_06_1508,59.9613724641,DRL_task,1,101,
5,0,5,0,,,8.32549405098,431,63,6,3606.57436109,5,,,,,,,2017_Jul_06_1508,59.9613724641,DRL_task,1,101,
5,0,5,0,,,7.17410707474,432,64,6,3613.74847507,5,,,,,,,2017_Jul_06_1508,59.9613724641,DRL_task,1,101,
5,0,5,0,,,4.97198987007,432,65,6,3618.72059608,5,,,,,,,2017_Jul_06_1508,59.9613724641,DRL_task,1,101,
5,0,5,0,,,8.87632203102,433,66,6,3627.59659791,5,,,,,,,2017_Jul_06_1508,59.9613724641,DRL_task,1,101,
5,0,5,0,,,8.84237790108,434,67,6,3636.43900704,5,,,,,,,2017_Jul_06_1508,59.9613724641,DRL_task,1,101,
5,0,5,0,,,9.54192614555,435,68,6,3645.98238206,5,,,,,,,2017_Jul_06_1508,59.9613724641,DRL_task,1,101,
5,0,5,0,,,10.8459808826,436,69,6,3656.82733297,5,,,,,,,2017_Jul_06_1508,59.9613724641,DRL_task,1,101,
5,0,5,0,,,7.47465419769,437,70,6,3664.3018291,5,,,,,,,2017_Jul_06_1508,59.9613724641,DRL_task,1,101,
5,0,5,0,,,9.67670488358,438,71,6,3673.97867203,5,,,,,,,2017_Jul_06_1508,59.9613724641,DRL_task,1,101,
5,0,5,0,,,11.9442169666,439,72,6,3685.924577,5,,,,,,,2017_Jul_06_1508,59.9613724641,DRL_task,1,101,
5,0,5,0,,,5.30766415596,440,73,6,3691.23005009,5,,,,,,,2017_Jul_06_1508,59.9613724641,DRL_task,1,101,
5,0,5,0,,,7.50763487816,441,74,6,3698.73755097,5,,,,,,,2017_Jul_06_1508,59.9613724641,DRL_task,1,101,
5,0,5,0,,,5.70479798317,442,75,6,3704.44395208,5,,,,,,,2017_Jul_06_1508,59.9613724641,DRL_task,1,101,
5,0,5,0,,,6.50800299644,443,76,6,3710.95095611,5,,,,,,,2017_Jul_06_1508,59.9613724641,DRL_task,1,101,
5,0,5,0,,,8.00699305534,444,77,6,3718.95944405,5,,,,,,,2017_Jul_06_1508,59.9613724641,DRL_task,1,101,
5,0,5,0,,,7.10897707939,445,78,6,3726.06670094,5,,,,,,,2017_Jul_06_1508,59.9613724641,DRL_task,1,101,
5,0,5,0,,,8.20724391937,446,79,6,3734.27546692,5,,,,,,,2017_Jul_06_1508,59.9613724641,DRL_task,1,101,
5,0,5,0,,,6.67530202866,447,80,6,3740.94907403,5,,,,,,,2017_Jul_06_1508,59.9613724641,DRL_task,1,101,
5,0,5,0,,,,,,,,,"['space', 'space', 'space', 'space', 'space', 'space', 'space', 'space', 'space', 'space', 'space', 'space', 'space', 'space', 'space', 'space', 'space', 'space', 'space', 'space', 'space', 'space', 'space', 'space', 'space', 'space', 'space', 'space', 'space', 'space', 'space', 'space', 'space', 'space', 'space', 'space', 'space', 'space', 'space', 'space', 'space', 'space', 'space', 'space', 'space', 'space', 'space', 'space', 'space', 'space', 'space', 'space', 'space', 'space', 'space', 'space', 'space', 'space', 'space', 'space', 'space', 'space', 'space', 'space', 'space', 'space', 'space', 'space', 'space', 'space', 'space', 'space', 'space', 'space', 'space', 'space', 'space', 'space', 'space', 'space']","[5.298043966293335, 11.055285930633545, 16.226356029510498, 21.865562915802002, 27.705024003982544, 32.81046986579895, 39.26727795600891, 45.50716996192932, 53.88404393196106, 61.525394916534424, 69.78399801254272, 77.52546000480652, 87.36810803413391, 94.9092378616333, 102.08542084693909, 109.02398586273193, 117.06762504577637, 123.99115705490112, 131.9661819934845, 139.44054794311523, 146.27974700927734, 154.37296104431152, 163.4494709968567, 172.52564191818237, 178.86400198936462, 182.10111594200134, 190.97691702842712, 198.9032928943634, 205.84222888946533, 214.26938796043396, 222.5283899307251, 229.28568196296692, 234.42438793182373, 239.8467469215393, 246.06997084617615, 252.8271200656891, 259.31725096702576, 265.52349400520325, 271.2783000469208, 277.38613200187683, 282.60846185684204, 289.01338386535645, 296.8885769844055, 305.0305049419403, 313.95793294906616, 321.98168992996216, 331.1411190032959, 338.86577105522156, 348.60943603515625, 356.7181758880615, 362.7760660648346, 370.8516380786896, 375.6712398529053, 384.8978750705719, 393.7738308906555, 401.81541085243225, 410.3759379386902, 419.252140045166, 429.19446992874146, 438.4041979312897, 445.4799280166626, 454.18880891799927, 462.5143029689789, 469.68841004371643, 474.66039991378784, 483.53672194480896, 492.37909984588623, 501.9210259914398, 512.7670068740845, 520.2416610717773, 529.9183659553528, 541.8625829219818, 547.1702470779419, 554.6778819561005, 560.38267993927, 566.8906829357147, 574.8976759910583, 582.0066530704498, 590.2138969898224, 596.8891990184784]",space,25.1784179211,,,2017_Jul_06_1508,59.9613724641,DRL_task,1,101,
,,,,,,,,,,,,,,,,space,6.92615103722,2017_Jul_06_1508,59.9613724641,DRL_task,1,101,
