experiment.thisRepN,experiment.thisTrialN,experiment.thisN,experiment.thisIndex,instructions_key.keys,instructions_key.rt,rt,score,response_number,block_number,time,interval,response.keys,response.rt,break_key.keys,break_key.rt,closing_key.keys,closing_key.rt,date,frameRate,expName,session,participant,
,,,,space,14.0690450668,,,,,,,,,,,,,2017_Jul_17_1109,59.9592295354,DRL_task,1,102,
0,0,0,0,,,6.33423709869,1,1,1,21.7481291294,5,,,,,,,2017_Jul_17_1109,59.9592295354,DRL_task,1,102,
0,0,0,0,,,13.5483529568,2,2,1,35.2964081764,5,,,,,,,2017_Jul_17_1109,59.9592295354,DRL_task,1,102,
0,0,0,0,,,24.8105280399,3,3,1,60.107336998,5,,,,,,,2017_Jul_17_1109,59.9592295354,DRL_task,1,102,
0,0,0,0,,,1.33340501785,3,4,1,61.4421072006,5,,,,,,,2017_Jul_17_1109,59.9592295354,DRL_task,1,102,
0,0,0,0,,,3.50372982025,3,5,1,64.9458141327,5,,,,,,,2017_Jul_17_1109,59.9592295354,DRL_task,1,102,
0,0,0,0,,,4.67315816879,3,6,1,69.6178541183,5,,,,,,,2017_Jul_17_1109,59.9592295354,DRL_task,1,102,
0,0,0,0,,,3.00345087051,3,7,1,72.621088028,5,,,,,,,2017_Jul_17_1109,59.9592295354,DRL_task,1,102,
0,0,0,0,,,6.45749306679,4,8,1,79.078042984,5,,,,,,,2017_Jul_17_1109,59.9592295354,DRL_task,1,102,
0,0,0,0,,,5.52255392075,5,9,1,84.6009581089,5,,,,,,,2017_Jul_17_1109,59.9592295354,DRL_task,1,102,
0,0,0,0,,,1.71871995926,5,10,1,86.3194360733,5,,,,,,,2017_Jul_17_1109,59.9592295354,DRL_task,1,102,
0,0,0,0,,,1.75168800354,5,11,1,88.0715060234,5,,,,,,,2017_Jul_17_1109,59.9592295354,DRL_task,1,102,
0,0,0,0,,,0.333842992783,5,12,1,88.4051930904,5,,,,,,,2017_Jul_17_1109,59.9592295354,DRL_task,1,102,
0,0,0,0,,,0.282298088074,5,13,1,88.6886150837,5,,,,,,,2017_Jul_17_1109,59.9592295354,DRL_task,1,102,
0,0,0,0,,,0.233659982681,5,14,1,88.9220330715,5,,,,,,,2017_Jul_17_1109,59.9592295354,DRL_task,1,102,
0,0,0,0,,,0.216737985611,5,15,1,89.139316082,5,,,,,,,2017_Jul_17_1109,59.9592295354,DRL_task,1,102,
0,0,0,0,,,0.185136079788,5,16,1,89.3227241039,5,,,,,,,2017_Jul_17_1109,59.9592295354,DRL_task,1,102,
0,0,0,0,,,1.15078091621,5,17,1,90.4741179943,5,,,,,,,2017_Jul_17_1109,59.9592295354,DRL_task,1,102,
0,0,0,0,,,0.566184043884,5,18,1,91.0413961411,5,,,,,,,2017_Jul_17_1109,59.9592295354,DRL_task,1,102,
0,0,0,0,,,0.43380188942,5,19,1,91.4752590656,5,,,,,,,2017_Jul_17_1109,59.9592295354,DRL_task,1,102,
0,0,0,0,,,1.03561306,5,20,1,92.5096561909,5,,,,,,,2017_Jul_17_1109,59.9592295354,DRL_task,1,102,
0,0,0,0,,,6.25150609016,6,21,1,98.760874033,5,,,,,,,2017_Jul_17_1109,59.9592295354,DRL_task,1,102,
0,0,0,0,,,6.75705885887,7,22,1,105.518166065,5,,,,,,,2017_Jul_17_1109,59.9592295354,DRL_task,1,102,
0,0,0,0,,,1.16816711426,7,23,1,106.686079025,5,,,,,,,2017_Jul_17_1109,59.9592295354,DRL_task,1,102,
0,0,0,0,,,2.70300793648,7,24,1,109.389012098,5,,,,,,,2017_Jul_17_1109,59.9592295354,DRL_task,1,102,
0,0,0,0,,,1.90059709549,7,25,1,111.291160107,5,,,,,,,2017_Jul_17_1109,59.9592295354,DRL_task,1,102,
0,0,0,0,,,1.95340895653,7,26,1,113.243121147,5,,,,,,,2017_Jul_17_1109,59.9592295354,DRL_task,1,102,
0,0,0,0,,,2.7352669239,7,27,1,115.97912097,5,,,,,,,2017_Jul_17_1109,59.9592295354,DRL_task,1,102,
0,0,0,0,,,1.98680710793,7,28,1,117.964788198,5,,,,,,,2017_Jul_17_1109,59.9592295354,DRL_task,1,102,
0,0,0,0,,,1.85181498528,7,29,1,119.817066193,5,,,,,,,2017_Jul_17_1109,59.9592295354,DRL_task,1,102,
0,0,0,0,,,3.28701901436,7,30,1,123.104027987,5,,,,,,,2017_Jul_17_1109,59.9592295354,DRL_task,1,102,
0,0,0,0,,,3.35248398781,7,31,1,126.457926035,5,,,,,,,2017_Jul_17_1109,59.9592295354,DRL_task,1,102,
0,0,0,0,,,5.79132294655,8,32,1,132.247444153,5,,,,,,,2017_Jul_17_1109,59.9592295354,DRL_task,1,102,
0,0,0,0,,,5.92303204536,9,33,1,138.17081809,5,,,,,,,2017_Jul_17_1109,59.9592295354,DRL_task,1,102,
0,0,0,0,,,4.70514297485,9,34,1,142.875986099,5,,,,,,,2017_Jul_17_1109,59.9592295354,DRL_task,1,102,
0,0,0,0,,,5.07225894928,10,35,1,147.948413134,5,,,,,,,2017_Jul_17_1109,59.9592295354,DRL_task,1,102,
0,0,0,0,,,6.57249617577,11,36,1,154.5221982,5,,,,,,,2017_Jul_17_1109,59.9592295354,DRL_task,1,102,
0,0,0,0,,,4.63973498344,11,37,1,159.160643101,5,,,,,,,2017_Jul_17_1109,59.9592295354,DRL_task,1,102,
0,0,0,0,,,2.25137686729,11,38,1,161.412974119,5,,,,,,,2017_Jul_17_1109,59.9592295354,DRL_task,1,102,
0,0,0,0,,,1.88649010658,11,39,1,163.298521996,5,,,,,,,2017_Jul_17_1109,59.9592295354,DRL_task,1,102,
0,0,0,0,,,5.30404496193,12,40,1,168.604417086,5,,,,,,,2017_Jul_17_1109,59.9592295354,DRL_task,1,102,
0,0,0,0,,,7.02493095398,13,41,1,175.62885499,5,,,,,,,2017_Jul_17_1109,59.9592295354,DRL_task,1,102,
0,0,0,0,,,4.78865289688,13,42,1,180.41743207,5,,,,,,,2017_Jul_17_1109,59.9592295354,DRL_task,1,102,
0,0,0,0,,,4.48843717575,13,43,1,184.90555501,5,,,,,,,2017_Jul_17_1109,59.9592295354,DRL_task,1,102,
0,0,0,0,,,5.33919000626,14,44,1,190.244757175,5,,,,,,,2017_Jul_17_1109,59.9592295354,DRL_task,1,102,
0,0,0,0,,,5.50735402107,15,45,1,195.750825167,5,,,,,,,2017_Jul_17_1109,59.9592295354,DRL_task,1,102,
0,0,0,0,,,4.20344591141,15,46,1,199.955485106,5,,,,,,,2017_Jul_17_1109,59.9592295354,DRL_task,1,102,
0,0,0,0,,,7.52647209167,16,47,1,207.480417013,5,,,,,,,2017_Jul_17_1109,59.9592295354,DRL_task,1,102,
0,0,0,0,,,7.32462882996,17,48,1,214.805199146,5,,,,,,,2017_Jul_17_1109,59.9592295354,DRL_task,1,102,
0,0,0,0,,,4.97054409981,17,49,1,219.777534008,5,,,,,,,2017_Jul_17_1109,59.9592295354,DRL_task,1,102,
0,0,0,0,,,7.3927719593,18,50,1,227.168996096,5,,,,,,,2017_Jul_17_1109,59.9592295354,DRL_task,1,102,
0,0,0,0,,,5.90522313118,19,51,1,233.075598001,5,,,,,,,2017_Jul_17_1109,59.9592295354,DRL_task,1,102,
0,0,0,0,,,6.29174089432,20,52,1,239.365795135,5,,,,,,,2017_Jul_17_1109,59.9592295354,DRL_task,1,102,
0,0,0,0,,,5.40611696243,21,53,1,244.771589041,5,,,,,,,2017_Jul_17_1109,59.9592295354,DRL_task,1,102,
0,0,0,0,,,8.29248809814,22,54,1,253.064053059,5,,,,,,,2017_Jul_17_1109,59.9592295354,DRL_task,1,102,
0,0,0,0,,,5.53797388077,23,55,1,258.603477001,5,,,,,,,2017_Jul_17_1109,59.9592295354,DRL_task,1,102,
0,0,0,0,,,2.76973700523,23,56,1,261.373222113,5,,,,,,,2017_Jul_17_1109,59.9592295354,DRL_task,1,102,
0,0,0,0,,,4.25462007523,23,57,1,265.628180981,5,,,,,,,2017_Jul_17_1109,59.9592295354,DRL_task,1,102,
0,0,0,0,,,6.42482495308,24,58,1,272.051871061,5,,,,,,,2017_Jul_17_1109,59.9592295354,DRL_task,1,102,
0,0,0,0,,,6.6394109726,25,59,1,278.692525148,5,,,,,,,2017_Jul_17_1109,59.9592295354,DRL_task,1,102,
0,0,0,0,,,5.89130401611,26,60,1,284.598957062,5,,,,,,,2017_Jul_17_1109,59.9592295354,DRL_task,1,102,
0,0,0,0,,,5.97195506096,27,61,1,290.55570817,5,,,,,,,2017_Jul_17_1109,59.9592295354,DRL_task,1,102,
0,0,0,0,,,5.47406601906,28,62,1,296.028414965,5,,,,,,,2017_Jul_17_1109,59.9592295354,DRL_task,1,102,
0,0,0,0,,,4.55510997772,28,63,1,300.582908154,5,,,,,,,2017_Jul_17_1109,59.9592295354,DRL_task,1,102,
0,0,0,0,,,3.77046895027,28,64,1,304.354221106,5,,,,,,,2017_Jul_17_1109,59.9592295354,DRL_task,1,102,
0,0,0,0,,,5.63836193085,29,65,1,309.993723154,5,,,,,,,2017_Jul_17_1109,59.9592295354,DRL_task,1,102,
0,0,0,0,,,4.90732598305,29,66,1,314.899025202,5,,,,,,,2017_Jul_17_1109,59.9592295354,DRL_task,1,102,
0,0,0,0,,,3.65212512016,29,67,1,318.553107977,5,,,,,,,2017_Jul_17_1109,59.9592295354,DRL_task,1,102,
0,0,0,0,,,4.5898809433,29,68,1,323.141614199,5,,,,,,,2017_Jul_17_1109,59.9592295354,DRL_task,1,102,
0,0,0,0,,,6.00530004501,30,69,1,329.148140192,5,,,,,,,2017_Jul_17_1109,59.9592295354,DRL_task,1,102,
0,0,0,0,,,4.05445408821,30,70,1,333.202709198,5,,,,,,,2017_Jul_17_1109,59.9592295354,DRL_task,1,102,
0,0,0,0,,,7.574903965,31,71,1,340.777649164,5,,,,,,,2017_Jul_17_1109,59.9592295354,DRL_task,1,102,
0,0,0,0,,,10.7969009876,32,72,1,351.572746992,5,,,,,,,2017_Jul_17_1109,59.9592295354,DRL_task,1,102,
0,0,0,0,,,5.92298007011,33,73,1,357.495947123,5,,,,,,,2017_Jul_17_1109,59.9592295354,DRL_task,1,102,
0,0,0,0,,,5.08750295639,34,74,1,362.58505106,5,,,,,,,2017_Jul_17_1109,59.9592295354,DRL_task,1,102,
0,0,0,0,,,4.22256588936,34,75,1,366.806391001,5,,,,,,,2017_Jul_17_1109,59.9592295354,DRL_task,1,102,
0,0,0,0,,,4.48859906197,34,76,1,371.294592142,5,,,,,,,2017_Jul_17_1109,59.9592295354,DRL_task,1,102,
0,0,0,0,,,5.87302994728,35,77,1,377.167800188,5,,,,,,,2017_Jul_17_1109,59.9592295354,DRL_task,1,102,
0,0,0,0,,,5.12226605415,36,78,1,382.29008007,5,,,,,,,2017_Jul_17_1109,59.9592295354,DRL_task,1,102,
0,0,0,0,,,3.75452709198,36,79,1,386.044270992,5,,,,,,,2017_Jul_17_1109,59.9592295354,DRL_task,1,102,
0,0,0,0,,,4.5047018528,36,80,1,390.549441099,5,,,,,,,2017_Jul_17_1109,59.9592295354,DRL_task,1,102,
0,0,0,0,,,5.28890299797,37,81,1,395.83843112,5,,,,,,,2017_Jul_17_1109,59.9592295354,DRL_task,1,102,
0,0,0,0,,,4.88911008835,37,82,1,400.726941109,5,,,,,,,2017_Jul_17_1109,59.9592295354,DRL_task,1,102,
0,0,0,0,,,5.5880188942,38,83,1,406.316538095,5,,,,,,,2017_Jul_17_1109,59.9592295354,DRL_task,1,102,
0,0,0,0,,,5.34067606926,39,84,1,411.655683041,5,,,,,,,2017_Jul_17_1109,59.9592295354,DRL_task,1,102,
0,0,0,0,,,4.42016005516,39,85,1,416.077303171,5,,,,,,,2017_Jul_17_1109,59.9592295354,DRL_task,1,102,
0,0,0,0,,,5.3569920063,40,86,1,421.433355093,5,,,,,,,2017_Jul_17_1109,59.9592295354,DRL_task,1,102,
0,0,0,0,,,3.97144603729,40,87,1,425.404339075,5,,,,,,,2017_Jul_17_1109,59.9592295354,DRL_task,1,102,
0,0,0,0,,,6.85741782188,41,88,1,432.261795044,5,,,,,,,2017_Jul_17_1109,59.9592295354,DRL_task,1,102,
0,0,0,0,,,3.92113399506,41,89,1,436.182780027,5,,,,,,,2017_Jul_17_1109,59.9592295354,DRL_task,1,102,
0,0,0,0,,,6.7405769825,42,90,1,442.923760176,5,,,,,,,2017_Jul_17_1109,59.9592295354,DRL_task,1,102,
0,0,0,0,,,6.22330713272,43,91,1,449.147068024,5,,,,,,,2017_Jul_17_1109,59.9592295354,DRL_task,1,102,
0,0,0,0,,,6.09030890465,44,92,1,455.246469021,5,,,,,,,2017_Jul_17_1109,59.9592295354,DRL_task,1,102,
0,0,0,0,,,5.38769602776,45,93,1,460.626612186,5,,,,,,,2017_Jul_17_1109,59.9592295354,DRL_task,1,102,
0,0,0,0,,,4.92216610909,45,94,1,465.548653126,5,,,,,,,2017_Jul_17_1109,59.9592295354,DRL_task,1,102,
0,0,0,0,,,5.40766191483,46,95,1,470.954665184,5,,,,,,,2017_Jul_17_1109,59.9592295354,DRL_task,1,102,
0,0,0,0,,,4.95518803596,46,96,1,475.926651001,5,,,,,,,2017_Jul_17_1109,59.9592295354,DRL_task,1,102,
0,0,0,0,,,6.48913002014,47,97,1,482.400642157,5,,,,,,,2017_Jul_17_1109,59.9592295354,DRL_task,1,102,
0,0,0,0,,,6.94253802299,48,98,1,489.341042042,5,,,,,,,2017_Jul_17_1109,59.9592295354,DRL_task,1,102,
0,0,0,0,,,5.43801593781,49,99,1,494.780829191,5,,,,,,,2017_Jul_17_1109,59.9592295354,DRL_task,1,102,
0,0,0,0,,,5.27359700203,50,100,1,500.053354025,5,,,,,,,2017_Jul_17_1109,59.9592295354,DRL_task,1,102,
0,0,0,0,,,5.47267007828,51,101,1,505.526137114,5,,,,,,,2017_Jul_17_1109,59.9592295354,DRL_task,1,102,
0,0,0,0,,,5.15532279015,52,102,1,510.698292971,5,,,,,,,2017_Jul_17_1109,59.9592295354,DRL_task,1,102,
0,0,0,0,,,5.62323522568,53,103,1,516.304695129,5,,,,,,,2017_Jul_17_1109,59.9592295354,DRL_task,1,102,
0,0,0,0,,,4.4869427681,53,104,1,520.792967081,5,,,,,,,2017_Jul_17_1109,59.9592295354,DRL_task,1,102,
0,0,0,0,,,7.69207119942,54,105,1,528.501348019,5,,,,,,,2017_Jul_17_1109,59.9592295354,DRL_task,1,102,
0,0,0,0,,,5.22196984291,55,106,1,533.707180977,5,,,,,,,2017_Jul_17_1109,59.9592295354,DRL_task,1,102,
0,0,0,0,,,6.29190301895,56,107,1,539.997503996,5,,,,,,,2017_Jul_17_1109,59.9592295354,DRL_task,1,102,
0,0,0,0,,,4.45368003845,56,108,1,544.452229023,5,,,,,,,2017_Jul_17_1109,59.9592295354,DRL_task,1,102,
0,0,0,0,,,4.22116112709,56,109,1,548.673680067,5,,,,,,,2017_Jul_17_1109,59.9592295354,DRL_task,1,102,
0,0,0,0,,,5.23929190636,57,110,1,553.912684202,5,,,,,,,2017_Jul_17_1109,59.9592295354,DRL_task,1,102,
0,0,0,0,,,4.78992295265,57,111,1,558.701538086,5,,,,,,,2017_Jul_17_1109,59.9592295354,DRL_task,1,102,
0,0,0,0,,,3.937677145,57,112,1,562.639145136,5,,,,,,,2017_Jul_17_1109,59.9592295354,DRL_task,1,102,
0,0,0,0,,,4.4213719368,57,113,1,567.060793161,5,,,,,,,2017_Jul_17_1109,59.9592295354,DRL_task,1,102,
0,0,0,0,,,8.22605085373,58,114,1,575.286331177,5,,,,,,,2017_Jul_17_1109,59.9592295354,DRL_task,1,102,
0,0,0,0,,,5.07206606865,59,115,1,580.358488083,5,,,,,,,2017_Jul_17_1109,59.9592295354,DRL_task,1,102,
0,0,0,0,,,5.82306313515,60,116,1,586.181797028,5,,,,,,,2017_Jul_17_1109,59.9592295354,DRL_task,1,102,
0,0,0,0,,,1.91883087158,60,117,1,588.100612164,5,,,,,,,2017_Jul_17_1109,59.9592295354,DRL_task,1,102,
0,0,0,0,,,3.85292696953,60,118,1,591.95464015,5,,,,,,,2017_Jul_17_1109,59.9592295354,DRL_task,1,102,
0,0,0,0,,,3.97250914574,60,119,1,595.925709009,5,,,,,,,2017_Jul_17_1109,59.9592295354,DRL_task,1,102,
0,0,0,0,,,3.8357219696,60,120,1,599.780024052,5,,,,,,,2017_Jul_17_1109,59.9592295354,DRL_task,1,102,
0,0,0,0,,,5.37433981895,61,121,1,605.135881186,5,,,,,,,2017_Jul_17_1109,59.9592295354,DRL_task,1,102,
0,0,0,0,,,3.02013111115,61,122,1,608.155855179,5,,,,,,,2017_Jul_17_1109,59.9592295354,DRL_task,1,102,
0,0,0,0,,,3.26878190041,61,123,1,611.426103115,5,,,,,,,2017_Jul_17_1109,59.9592295354,DRL_task,1,102,
0,0,0,0,,,,,,,,,"['space', 'space', 'space', 'space', 'space', 'space', 'space', 'space', 'space', 'space', 'space', 'space', 'space', 'space', 'space', 'space', 'space', 'space', 'space', 'space', 'space', 'space', 'space', 'space', 'space', 'space', 'space', 'space', 'space', 'space', 'space', 'space', 'space', 'space', 'space', 'space', 'space', 'space', 'space', 'space', 'space', 'space', 'space', 'space', 'space', 'space', 'space', 'space', 'space', 'space', 'space', 'space', 'space', 'space', 'space', 'space', 'space', 'space', 'space', 'space', 'space', 'space', 'space', 'space', 'space', 'space', 'space', 'space', 'space', 'space', 'space', 'space', 'space', 'space', 'space', 'space', 'space', 'space', 'space', 'space', 'space', 'space', 'space', 'space', 'space', 'space', 'space', 'space', 'space', 'space', 'space', 'space', 'space', 'space', 'space', 'space', 'space', 'space', 'space', 'space', 'space', 'space', 'space', 'space', 'space', 'space', 'space', 'space', 'space', 'space', 'space', 'space', 'space', 'space', 'space', 'space', 'space', 'space', 'space', 'space', 'space', 'space', 'space']","[6.334237098693848, 19.8825900554657, 44.69311809539795, 46.02652311325073, 49.5302529335022, 54.20341110229492, 57.20686197280884, 63.66435503959656, 69.18690896034241, 70.90562891960144, 72.65731692314148, 72.99115991592407, 73.2734580039978, 73.50711798667908, 73.72385597229004, 73.90899205207825, 75.05977296829224, 75.62595701217651, 76.05975890159607, 77.09537196159363, 83.34687805175781, 90.10393691062927, 91.27210402488708, 93.97511196136475, 95.87570905685425, 97.82911801338196, 100.56438493728638, 102.55119204521179, 104.40300703048706, 107.69002604484558, 111.04251003265381, 116.83383297920227, 122.75686502456665, 127.46200799942017, 132.53426694869995, 139.10676312446594, 143.74649810791016, 145.99787497520447, 147.8843650817871, 153.18841004371643, 160.21334099769592, 165.00199389457703, 169.49043107032776, 174.82962107658386, 180.33697509765625, 184.54042100906372, 192.06689310073853, 199.39152193069458, 204.36206603050232, 211.75483798980713, 217.66006112098694, 223.95180201530457, 229.35791897773743, 237.65040707588196, 243.18838095664978, 245.95811796188354, 250.21273803710938, 256.6375629901886, 263.2769739627838, 269.1682779788971, 275.14023303985596, 280.6142990589142, 285.16940903663635, 288.93987798690796, 294.5782399177551, 299.4855659008026, 303.1376910209656, 307.7275719642639, 313.73287200927734, 317.7873260974884, 325.36223006248474, 336.15913105010986, 342.082111120224, 347.1696140766144, 351.3921799659729, 355.88077902793884, 361.7538089752197, 366.87607502937317, 370.63060212135315, 375.1353039741516, 380.4242069721222, 385.3133170604706, 390.90133595466614, 396.2420120239258, 400.6621720790863, 406.0191640853882, 409.99061012268066, 416.8480279445648, 420.769161939621, 427.50973892211914, 433.7330460548401, 439.8233549594879, 445.21105098724365, 450.13321709632874, 455.5408790111542, 460.49606704711914, 466.98519706726074, 473.92773509025574, 479.3657510280609, 484.63934803009033, 490.1120181083679, 495.2673408985138, 500.8905761241913, 505.3775188922882, 513.0695900917053, 518.2915599346161, 524.5834629535675, 529.0371429920197, 533.2583041191101, 538.4975960254669, 543.2875189781189, 547.2251961231232, 551.6465680599213, 559.8726189136505, 564.9446849822998, 570.7677481174469, 572.6865789890289, 576.5395059585571, 580.5120151042938, 584.3477370738983, 589.7220768928528, 592.7422080039978, 596.0109899044037]",space,38.2937841415,,,2017_Jul_17_1109,59.9592295354,DRL_task,1,102,
1,0,1,0,,,4.94094395638,61,1,2,659.963150978,5,,,,,,,2017_Jul_17_1109,59.9592295354,DRL_task,1,102,
1,0,1,0,,,4.80421209335,61,2,2,664.768450022,5,,,,,,,2017_Jul_17_1109,59.9592295354,DRL_task,1,102,
1,0,1,0,,,5.34046292305,62,3,2,670.10750699,5,,,,,,,2017_Jul_17_1109,59.9592295354,DRL_task,1,102,
1,0,1,0,,,5.05544495583,63,4,2,675.163245201,5,,,,,,,2017_Jul_17_1109,59.9592295354,DRL_task,1,102,
1,0,1,0,,,4.73892021179,63,5,2,679.901843071,5,,,,,,,2017_Jul_17_1109,59.9592295354,DRL_task,1,102,
1,0,1,0,,,5.28915596008,64,6,2,685.190957069,5,,,,,,,2017_Jul_17_1109,59.9592295354,DRL_task,1,102,
1,0,1,0,,,4.88885593414,64,7,2,690.079538107,5,,,,,,,2017_Jul_17_1109,59.9592295354,DRL_task,1,102,
1,0,1,0,,,4.65491509438,64,8,2,694.734671116,5,,,,,,,2017_Jul_17_1109,59.9592295354,DRL_task,1,102,
1,0,1,0,,,4.72185301781,64,9,2,699.456807137,5,,,,,,,2017_Jul_17_1109,59.9592295354,DRL_task,1,102,
1,0,1,0,,,5.63977599144,65,10,2,705.096203089,5,,,,,,,2017_Jul_17_1109,59.9592295354,DRL_task,1,102,
1,0,1,0,,,5.22249794006,66,11,2,710.318562984,5,,,,,,,2017_Jul_17_1109,59.9592295354,DRL_task,1,102,
1,0,1,0,,,4.92185497284,66,12,2,715.240756989,5,,,,,,,2017_Jul_17_1109,59.9592295354,DRL_task,1,102,
1,0,1,0,,,5.05430698395,67,13,2,720.296489,5,,,,,,,2017_Jul_17_1109,59.9592295354,DRL_task,1,102,
1,0,1,0,,,5.37251901627,68,14,2,725.669022083,5,,,,,,,2017_Jul_17_1109,59.9592295354,DRL_task,1,102,
1,0,1,0,,,5.75766992569,69,15,2,731.425440073,5,,,,,,,2017_Jul_17_1109,59.9592295354,DRL_task,1,102,
1,0,1,0,,,5.58945012093,70,16,2,737.014624119,5,,,,,,,2017_Jul_17_1109,59.9592295354,DRL_task,1,102,
1,0,1,0,,,1.28365397453,70,17,2,738.299427986,5,,,,,,,2017_Jul_17_1109,59.9592295354,DRL_task,1,102,
1,0,1,0,,,3.57186198235,70,18,2,741.870234966,5,,,,,,,2017_Jul_17_1109,59.9592295354,DRL_task,1,102,
1,0,1,0,,,0.216448068619,70,19,2,742.087166071,5,,,,,,,2017_Jul_17_1109,59.9592295354,DRL_task,1,102,
1,0,1,0,,,6.10582304001,71,20,2,748.193929195,5,,,,,,,2017_Jul_17_1109,59.9592295354,DRL_task,1,102,
1,0,1,0,,,6.12330889702,72,21,2,754.31728816,5,,,,,,,2017_Jul_17_1109,59.9592295354,DRL_task,1,102,
1,0,1,0,,,6.00661993027,73,22,2,760.323443174,5,,,,,,,2017_Jul_17_1109,59.9592295354,DRL_task,1,102,
1,0,1,0,,,6.59189510345,74,23,2,766.914330006,5,,,,,,,2017_Jul_17_1109,59.9592295354,DRL_task,1,102,
1,0,1,0,,,6.57270789146,75,24,2,773.488203049,5,,,,,,,2017_Jul_17_1109,59.9592295354,DRL_task,1,102,
1,0,1,0,,,6.75867605209,76,25,2,780.245779037,5,,,,,,,2017_Jul_17_1109,59.9592295354,DRL_task,1,102,
1,0,1,0,,,6.53925704956,77,26,2,786.786420107,5,,,,,,,2017_Jul_17_1109,59.9592295354,DRL_task,1,102,
1,0,1,0,,,6.42485785484,78,27,2,793.210160971,5,,,,,,,2017_Jul_17_1109,59.9592295354,DRL_task,1,102,
1,0,1,0,,,6.8566391468,79,28,2,800.067579031,5,,,,,,,2017_Jul_17_1109,59.9592295354,DRL_task,1,102,
1,0,1,0,,,5.79082393646,80,29,2,805.857252121,5,,,,,,,2017_Jul_17_1109,59.9592295354,DRL_task,1,102,
1,0,1,0,,,9.3759469986,81,30,2,815.234266996,5,,,,,,,2017_Jul_17_1109,59.9592295354,DRL_task,1,102,
1,0,1,0,,,6.37334394455,82,31,2,821.608143091,5,,,,,,,2017_Jul_17_1109,59.9592295354,DRL_task,1,102,
1,0,1,0,,,6.19195413589,83,32,2,827.798233986,5,,,,,,,2017_Jul_17_1109,59.9592295354,DRL_task,1,102,
1,0,1,0,,,6.32329297066,84,33,2,834.121872187,5,,,,,,,2017_Jul_17_1109,59.9592295354,DRL_task,1,102,
1,0,1,0,,,13.897206068,85,34,2,848.0206182,5,,,,,,,2017_Jul_17_1109,59.9592295354,DRL_task,1,102,
1,0,1,0,,,9.76112580299,86,35,2,857.781232119,5,,,,,,,2017_Jul_17_1109,59.9592295354,DRL_task,1,102,
1,0,1,0,,,15.6016972065,87,36,2,873.381940126,5,,,,,,,2017_Jul_17_1109,59.9592295354,DRL_task,1,102,
1,0,1,0,,,6.25685095787,88,37,2,879.638401031,5,,,,,,,2017_Jul_17_1109,59.9592295354,DRL_task,1,102,
1,0,1,0,,,11.5629379749,89,38,2,891.201586008,5,,,,,,,2017_Jul_17_1109,59.9592295354,DRL_task,1,102,
1,0,1,0,,,6.92428207397,90,39,2,898.125902176,5,,,,,,,2017_Jul_17_1109,59.9592295354,DRL_task,1,102,
1,0,1,0,,,9.85968279839,91,40,2,907.986582041,5,,,,,,,2017_Jul_17_1109,59.9592295354,DRL_task,1,102,
1,0,1,0,,,6.94212698936,92,41,2,914.927608013,5,,,,,,,2017_Jul_17_1109,59.9592295354,DRL_task,1,102,
1,0,1,0,,,4.85526704788,92,42,2,919.782670975,5,,,,,,,2017_Jul_17_1109,59.9592295354,DRL_task,1,102,
1,0,1,0,,,9.44228410721,93,43,2,929.226865053,5,,,,,,,2017_Jul_17_1109,59.9592295354,DRL_task,1,102,
1,0,1,0,,,26.3123810291,94,44,2,955.572437048,5,,,,,,,2017_Jul_17_1109,59.9592295354,DRL_task,1,102,
1,0,1,0,,,6.64084196091,95,45,2,962.179744005,5,,,,,,,2017_Jul_17_1109,59.9592295354,DRL_task,1,102,
1,0,1,0,,,21.6419558525,96,46,2,983.820129156,5,,,,,,,2017_Jul_17_1109,59.9592295354,DRL_task,1,102,
1,0,1,0,,,8.52611708641,97,47,2,992.346476078,5,,,,,,,2017_Jul_17_1109,59.9592295354,DRL_task,1,102,
1,0,1,0,,,14.8665111065,98,48,2,1007.21272016,5,,,,,,,2017_Jul_17_1109,59.9592295354,DRL_task,1,102,
1,0,1,0,,,25.0773508549,99,49,2,1032.29040718,5,,,,,,,2017_Jul_17_1109,59.9592295354,DRL_task,1,102,
1,0,1,0,,,5.70665597916,100,50,2,1037.99671602,5,,,,,,,2017_Jul_17_1109,59.9592295354,DRL_task,1,102,
1,0,1,0,,,3.75357103348,100,51,2,1041.75102711,5,,,,,,,2017_Jul_17_1109,59.9592295354,DRL_task,1,102,
1,0,1,0,,,4.88932204247,100,52,2,1046.63954902,5,,,,,,,2017_Jul_17_1109,59.9592295354,DRL_task,1,102,
1,0,1,0,,,4.48794198036,100,53,2,1051.12803698,5,,,,,,,2017_Jul_17_1109,59.9592295354,DRL_task,1,102,
1,0,1,0,,,5.82318210602,101,54,2,1056.95091414,5,,,,,,,2017_Jul_17_1109,59.9592295354,DRL_task,1,102,
1,0,1,0,,,5.92289495468,102,55,2,1062.87431312,5,,,,,,,2017_Jul_17_1109,59.9592295354,DRL_task,1,102,
1,0,1,0,,,5.42282104492,103,56,2,1068.29680419,5,,,,,,,2017_Jul_17_1109,59.9592295354,DRL_task,1,102,
1,0,1,0,,,4.13679790497,103,57,2,1072.43467402,5,,,,,,,2017_Jul_17_1109,59.9592295354,DRL_task,1,102,
1,0,1,0,,,3.30473804474,103,58,2,1075.73836899,5,,,,,,,2017_Jul_17_1109,59.9592295354,DRL_task,1,102,
1,0,1,0,,,4.43697595596,103,59,2,1080.17660713,5,,,,,,,2017_Jul_17_1109,59.9592295354,DRL_task,1,102,
1,0,1,0,,,4.82341504097,103,60,2,1084.9987402,5,,,,,,,2017_Jul_17_1109,59.9592295354,DRL_task,1,102,
1,0,1,0,,,3.72085404396,103,61,2,1088.71936107,5,,,,,,,2017_Jul_17_1109,59.9592295354,DRL_task,1,102,
1,0,1,0,,,3.27018690109,103,62,2,1091.98957205,5,,,,,,,2017_Jul_17_1109,59.9592295354,DRL_task,1,102,
1,0,1,0,,,8.35949110985,104,63,2,1100.34898615,5,,,,,,,2017_Jul_17_1109,59.9592295354,DRL_task,1,102,
1,0,1,0,,,7.99208402634,105,64,2,1108.34092402,5,,,,,,,2017_Jul_17_1109,59.9592295354,DRL_task,1,102,
1,0,1,0,,,9.94426393509,106,65,2,1118.28530908,5,,,,,,,2017_Jul_17_1109,59.9592295354,DRL_task,1,102,
1,0,1,0,,,0.516847848892,106,66,2,1118.80266714,5,,,,,,,2017_Jul_17_1109,59.9592295354,DRL_task,1,102,
1,0,1,0,,,8.69300913811,107,67,2,1127.49557805,5,,,,,,,2017_Jul_17_1109,59.9592295354,DRL_task,1,102,
1,0,1,0,,,11.6295070648,108,68,2,1139.12502503,5,,,,,,,2017_Jul_17_1109,59.9592295354,DRL_task,1,102,
1,0,1,0,,,7.39144778252,109,69,2,1146.51641297,5,,,,,,,2017_Jul_17_1109,59.9592295354,DRL_task,1,102,
1,0,1,0,,,5.95659708977,110,70,2,1152.47256112,5,,,,,,,2017_Jul_17_1109,59.9592295354,DRL_task,1,102,
1,0,1,0,,,7.17316007614,111,71,2,1159.64778113,5,,,,,,,2017_Jul_17_1109,59.9592295354,DRL_task,1,102,
1,0,1,0,,,5.99151802063,112,72,2,1165.63748717,5,,,,,,,2017_Jul_17_1109,59.9592295354,DRL_task,1,102,
1,0,1,0,,,4.43661904335,112,73,2,1170.07594109,5,,,,,,,2017_Jul_17_1109,59.9592295354,DRL_task,1,102,
1,0,1,0,,,4.92394995689,112,74,2,1174.99784613,5,,,,,,,2017_Jul_17_1109,59.9592295354,DRL_task,1,102,
1,0,1,0,,,5.98990797997,113,75,2,1180.98775411,5,,,,,,,2017_Jul_17_1109,59.9592295354,DRL_task,1,102,
1,0,1,0,,,11.2608048916,114,76,2,1192.2502172,5,,,,,,,2017_Jul_17_1109,59.9592295354,DRL_task,1,102,
1,0,1,0,,,6.05790400505,115,77,2,1198.30686498,5,,,,,,,2017_Jul_17_1109,59.9592295354,DRL_task,1,102,
1,0,1,0,,,4.6871740818,115,78,2,1202.99540901,5,,,,,,,2017_Jul_17_1109,59.9592295354,DRL_task,1,102,
1,0,1,0,,,5.97336888313,116,79,2,1208.96863604,5,,,,,,,2017_Jul_17_1109,59.9592295354,DRL_task,1,102,
1,0,1,0,,,6.47399902344,117,80,2,1215.44245219,5,,,,,,,2017_Jul_17_1109,59.9592295354,DRL_task,1,102,
1,0,1,0,,,5.00654911995,118,81,2,1220.44797111,5,,,,,,,2017_Jul_17_1109,59.9592295354,DRL_task,1,102,
1,0,1,0,,,5.35449504852,119,82,2,1225.80426097,5,,,,,,,2017_Jul_17_1109,59.9592295354,DRL_task,1,102,
1,0,1,0,,,3.42044496536,119,83,2,1229.22449899,5,,,,,,,2017_Jul_17_1109,59.9592295354,DRL_task,1,102,
1,0,1,0,,,3.50570988655,119,84,2,1232.728338,5,,,,,,,2017_Jul_17_1109,59.9592295354,DRL_task,1,102,
1,0,1,0,,,5.83810710907,120,85,2,1238.56793213,5,,,,,,,2017_Jul_17_1109,59.9592295354,DRL_task,1,102,
1,0,1,0,,,9.47815203667,121,86,2,1248.04524302,5,,,,,,,2017_Jul_17_1109,59.9592295354,DRL_task,1,102,
1,0,1,0,,,4.12154984474,121,87,2,1252.16626406,5,,,,,,,2017_Jul_17_1109,59.9592295354,DRL_task,1,102,
1,0,1,0,,,0.633743047714,121,88,2,1252.80425215,5,,,,,,,2017_Jul_17_1109,59.9592295354,DRL_task,1,102,
1,0,1,0,,,,,,,,,"['space', 'space', 'space', 'space', 'space', 'space', 'space', 'space', 'space', 'space', 'space', 'space', 'space', 'space', 'space', 'space', 'space', 'space', 'space', 'space', 'space', 'space', 'space', 'space', 'space', 'space', 'space', 'space', 'space', 'space', 'space', 'space', 'space', 'space', 'space', 'space', 'space', 'space', 'space', 'space', 'space', 'space', 'space', 'space', 'space', 'space', 'space', 'space', 'space', 'space', 'space', 'space', 'space', 'space', 'space', 'space', 'space', 'space', 'space', 'space', 'space', 'space', 'space', 'space', 'space', 'space', 'space', 'space', 'space', 'space', 'space', 'space', 'space', 'space', 'space', 'space', 'space', 'space', 'space', 'space', 'space', 'space', 'space', 'space', 'space', 'space', 'space', 'space']","[4.940943956375122, 9.745156049728394, 15.08561897277832, 20.141063928604126, 24.879984140396118, 30.169140100479126, 35.05799603462219, 39.7129111289978, 44.43476414680481, 50.07454013824463, 55.297038078308105, 60.21889305114746, 65.27320003509521, 70.64571905136108, 76.40338897705078, 81.99283909797668, 83.27649307250977, 86.84835505485535, 87.06480312347412, 93.17062616348267, 99.2939350605011, 105.30055499076843, 111.89245009422302, 118.46515798568726, 125.22383403778076, 131.7630910873413, 138.18794894218445, 145.04458808898926, 150.83541202545166, 160.21135902404785, 166.5847029685974, 172.7766571044922, 179.09995007514954, 192.99715614318848, 202.75828194618225, 218.35997915267944, 224.61683011054993, 236.17976808547974, 243.10405015945435, 252.96373295783997, 259.9058599472046, 264.76112699508667, 274.2034111022949, 300.51579213142395, 307.15663409233093, 328.7985899448395, 337.32470703125, 352.1912181377411, 377.26856899261475, 382.97522497177124, 386.728796005249, 391.61811804771423, 396.1060600280762, 401.92924213409424, 407.85213708877563, 413.2749581336975, 417.41175603866577, 420.71649408340454, 425.1534700393677, 429.9768850803375, 433.6977391242981, 436.9679260253906, 445.32741713523865, 453.3195011615753, 463.26376509666443, 463.78061294555664, 472.47362208366394, 484.1031291484833, 491.49457693099976, 497.4511740207672, 504.62433409690857, 510.61585211753845, 515.0524711608887, 519.9764211177826, 525.9663290977478, 537.2271339893341, 543.2850379943848, 547.9722120761871, 553.9455809593201, 560.4195799827576, 565.4261291027069, 570.7806241512299, 574.2010691165924, 577.7067790031433, 583.5448861122131, 593.02303814888, 597.1445879936218, 597.7783310413361]",space,56.4637820721,,,2017_Jul_17_1109,59.9592295354,DRL_task,1,102,
2,0,2,0,,,5.09138393402,122,1,3,1317.80537415,5,,,,,,,2017_Jul_17_1109,59.9592295354,DRL_task,1,102,
2,0,2,0,,,7.85816216469,123,2,3,1325.66419911,5,,,,,,,2017_Jul_17_1109,59.9592295354,DRL_task,1,102,
2,0,2,0,,,8.79299378395,124,3,3,1334.45727897,5,,,,,,,2017_Jul_17_1109,59.9592295354,DRL_task,1,102,
2,0,2,0,,,6.12217116356,125,4,3,1340.58070898,5,,,,,,,2017_Jul_17_1109,59.9592295354,DRL_task,1,102,
2,0,2,0,,,5.43935894966,126,5,3,1346.02025318,5,,,,,,,2017_Jul_17_1109,59.9592295354,DRL_task,1,102,
2,0,2,0,,,5.58948993683,127,6,3,1351.60950804,5,,,,,,,2017_Jul_17_1109,59.9592295354,DRL_task,1,102,
2,0,2,0,,,9.06161808968,128,7,3,1360.66950607,5,,,,,,,2017_Jul_17_1109,59.9592295354,DRL_task,1,102,
2,0,2,0,,,6.4901239872,129,8,3,1367.16000509,5,,,,,,,2017_Jul_17_1109,59.9592295354,DRL_task,1,102,
2,0,2,0,,,5.38818597794,130,9,3,1372.54927397,5,,,,,,,2017_Jul_17_1109,59.9592295354,DRL_task,1,102,
2,0,2,0,,,10.4446630478,131,10,3,1382.99418616,5,,,,,,,2017_Jul_17_1109,59.9592295354,DRL_task,1,102,
2,0,2,0,,,5.62290501595,132,11,3,1388.61700702,5,,,,,,,2017_Jul_17_1109,59.9592295354,DRL_task,1,102,
2,0,2,0,,,6.59106588364,133,12,3,1395.20746803,5,,,,,,,2017_Jul_17_1109,59.9592295354,DRL_task,1,102,
2,0,2,0,,,14.2665791512,134,13,3,1409.47316098,5,,,,,,,2017_Jul_17_1109,59.9592295354,DRL_task,1,102,
2,0,2,0,,,12.3623178005,135,14,3,1421.83699608,5,,,,,,,2017_Jul_17_1109,59.9592295354,DRL_task,1,102,
2,0,2,0,,,10.4950749874,136,15,3,1432.33193398,5,,,,,,,2017_Jul_17_1109,59.9592295354,DRL_task,1,102,
2,0,2,0,,,4.7900891304,136,16,3,1437.12033105,5,,,,,,,2017_Jul_17_1109,59.9592295354,DRL_task,1,102,
2,0,2,0,,,11.461222887,137,17,3,1448.58318806,5,,,,,,,2017_Jul_17_1109,59.9592295354,DRL_task,1,102,
2,0,2,0,,,6.02452898026,138,18,3,1454.60636497,5,,,,,,,2017_Jul_17_1109,59.9592295354,DRL_task,1,102,
2,0,2,0,,,5.73863720894,139,19,3,1460.34597397,5,,,,,,,2017_Jul_17_1109,59.9592295354,DRL_task,1,102,
2,0,2,0,,,11.4136269093,140,20,3,1471.75856519,5,,,,,,,2017_Jul_17_1109,59.9592295354,DRL_task,1,102,
2,0,2,0,,,22.3414990902,141,21,3,1494.10015297,5,,,,,,,2017_Jul_17_1109,59.9592295354,DRL_task,1,102,
2,0,2,0,,,5.82177782059,142,22,3,1499.92310905,5,,,,,,,2017_Jul_17_1109,59.9592295354,DRL_task,1,102,
2,0,2,0,,,8.04361915588,143,23,3,1507.96516109,5,,,,,,,2017_Jul_17_1109,59.9592295354,DRL_task,1,102,
2,0,2,0,,,9.59362602234,144,24,3,1517.55933905,5,,,,,,,2017_Jul_17_1109,59.9592295354,DRL_task,1,102,
2,0,2,0,,,20.871847868,145,25,3,1538.43213606,5,,,,,,,2017_Jul_17_1109,59.9592295354,DRL_task,1,102,
2,0,2,0,,,23.8093519211,146,26,3,1562.24188614,5,,,,,,,2017_Jul_17_1109,59.9592295354,DRL_task,1,102,
2,0,2,0,,,4.22152805328,146,27,3,1566.46307015,5,,,,,,,2017_Jul_17_1109,59.9592295354,DRL_task,1,102,
2,0,2,0,,,4.60504817963,146,28,3,1571.06831098,5,,,,,,,2017_Jul_17_1109,59.9592295354,DRL_task,1,102,
2,0,2,0,,,14.5172839165,147,29,3,1585.58410716,5,,,,,,,2017_Jul_17_1109,59.9592295354,DRL_task,1,102,
2,0,2,0,,,6.72389698029,148,30,3,1592.30837512,5,,,,,,,2017_Jul_17_1109,59.9592295354,DRL_task,1,102,
2,0,2,0,,,5.87362504005,149,31,3,1598.1814642,5,,,,,,,2017_Jul_17_1109,59.9592295354,DRL_task,1,102,
2,0,2,0,,,8.54282283783,150,32,3,1606.72419119,5,,,,,,,2017_Jul_17_1109,59.9592295354,DRL_task,1,102,
2,0,2,0,,,5.42108201981,151,33,3,1612.14693713,5,,,,,,,2017_Jul_17_1109,59.9592295354,DRL_task,1,102,
2,0,2,0,,,10.2957530022,152,34,3,1622.44164705,5,,,,,,,2017_Jul_17_1109,59.9592295354,DRL_task,1,102,
2,0,2,0,,,4.02163410187,152,35,3,1626.46263099,5,,,,,,,2017_Jul_17_1109,59.9592295354,DRL_task,1,102,
2,0,2,0,,,5.32200598717,153,36,3,1631.78528714,5,,,,,,,2017_Jul_17_1109,59.9592295354,DRL_task,1,102,
2,0,2,0,,,6.07351493835,154,37,3,1637.8585732,5,,,,,,,2017_Jul_17_1109,59.9592295354,DRL_task,1,102,
2,0,2,0,,,13.1480770111,155,38,3,1651.00643611,5,,,,,,,2017_Jul_17_1109,59.9592295354,DRL_task,1,102,
2,0,2,0,,,6.48944115639,156,39,3,1657.496984,5,,,,,,,2017_Jul_17_1109,59.9592295354,DRL_task,1,102,
2,0,2,0,,,18.4209218025,157,40,3,1675.91722512,5,,,,,,,2017_Jul_17_1109,59.9592295354,DRL_task,1,102,
2,0,2,0,,,6.77293419838,158,41,3,1682.69151306,5,,,,,,,2017_Jul_17_1109,59.9592295354,DRL_task,1,102,
2,0,2,0,,,11.6642928123,159,42,3,1694.35412812,5,,,,,,,2017_Jul_17_1109,59.9592295354,DRL_task,1,102,
2,0,2,0,,,6.10529017448,160,43,3,1700.49444008,5,,,,,,,2017_Jul_17_1109,59.9592295354,DRL_task,1,102,
2,0,2,0,,,5.92465901375,161,44,3,1706.38406801,5,,,,,,,2017_Jul_17_1109,59.9592295354,DRL_task,1,102,
2,0,2,0,,,9.56047582626,162,45,3,1715.94488907,5,,,,,,,2017_Jul_17_1109,59.9592295354,DRL_task,1,102,
2,0,2,0,,,4.73902201653,162,46,3,1720.68317604,5,,,,,,,2017_Jul_17_1109,59.9592295354,DRL_task,1,102,
2,0,2,0,,,9.57563996315,163,47,3,1730.26063704,5,,,,,,,2017_Jul_17_1109,59.9592295354,DRL_task,1,102,
2,0,2,0,,,5.97302818298,164,48,3,1736.23384714,5,,,,,,,2017_Jul_17_1109,59.9592295354,DRL_task,1,102,
2,0,2,0,,,5.28918790817,165,49,3,1741.55639815,5,,,,,,,2017_Jul_17_1109,59.9592295354,DRL_task,1,102,
2,0,2,0,,,4.53958392143,165,50,3,1746.06131911,5,,,,,,,2017_Jul_17_1109,59.9592295354,DRL_task,1,102,
2,0,2,0,,,1.61720013618,165,51,3,1747.679811,5,,,,,,,2017_Jul_17_1109,59.9592295354,DRL_task,1,102,
2,0,2,0,,,11.0790510178,166,52,3,1758.75897813,5,,,,,,,2017_Jul_17_1109,59.9592295354,DRL_task,1,102,
2,0,2,0,,,14.0656278133,167,53,3,1772.82421613,5,,,,,,,2017_Jul_17_1109,59.9592295354,DRL_task,1,102,
2,0,2,0,,,1.3850030899,167,54,3,1774.20888615,5,,,,,,,2017_Jul_17_1109,59.9592295354,DRL_task,1,102,
2,0,2,0,,,6.08979296684,168,55,3,1780.29912114,5,,,,,,,2017_Jul_17_1109,59.9592295354,DRL_task,1,102,
2,0,2,0,,,4.7218670845,168,56,3,1785.02082014,5,,,,,,,2017_Jul_17_1109,59.9592295354,DRL_task,1,102,
2,0,2,0,,,4.42315006256,168,57,3,1789.44237304,5,,,,,,,2017_Jul_17_1109,59.9592295354,DRL_task,1,102,
2,0,2,0,,,4.52132582664,168,58,3,1793.96407509,5,,,,,,,2017_Jul_17_1109,59.9592295354,DRL_task,1,102,
2,0,2,0,,,5.60473203659,169,59,3,1799.57039309,5,,,,,,,2017_Jul_17_1109,59.9592295354,DRL_task,1,102,
2,0,2,0,,,6.79225993156,170,60,3,1806.36102915,5,,,,,,,2017_Jul_17_1109,59.9592295354,DRL_task,1,102,
2,0,2,0,,,5.92321205139,171,61,3,1812.28428698,5,,,,,,,2017_Jul_17_1109,59.9592295354,DRL_task,1,102,
2,0,2,0,,,5.77302908897,172,62,3,1818.05726719,5,,,,,,,2017_Jul_17_1109,59.9592295354,DRL_task,1,102,
2,0,2,0,,,4.45509696007,172,63,3,1822.5122211,5,,,,,,,2017_Jul_17_1109,59.9592295354,DRL_task,1,102,
2,0,2,0,,,3.71936893463,172,64,3,1826.23295903,5,,,,,,,2017_Jul_17_1109,59.9592295354,DRL_task,1,102,
2,0,2,0,,,4.15435218811,172,65,3,1830.3877542,5,,,,,,,2017_Jul_17_1109,59.9592295354,DRL_task,1,102,
2,0,2,0,,,3.75534677505,172,66,3,1834.14184713,5,,,,,,,2017_Jul_17_1109,59.9592295354,DRL_task,1,102,
2,0,2,0,,,6.80797600746,173,67,3,1840.94937897,5,,,,,,,2017_Jul_17_1109,59.9592295354,DRL_task,1,102,
2,0,2,0,,,7.08969116211,174,68,3,1848.0405252,5,,,,,,,2017_Jul_17_1109,59.9592295354,DRL_task,1,102,
2,0,2,0,,,5.87420797348,175,69,3,1853.9136622,5,,,,,,,2017_Jul_17_1109,59.9592295354,DRL_task,1,102,
2,0,2,0,,,4.90558385849,175,70,3,1858.81891418,5,,,,,,,2017_Jul_17_1109,59.9592295354,DRL_task,1,102,
2,0,2,0,,,5.43810510635,176,71,3,1864.25792599,5,,,,,,,2017_Jul_17_1109,59.9592295354,DRL_task,1,102,
2,0,2,0,,,6.90761208534,177,72,3,1871.16602206,5,,,,,,,2017_Jul_17_1109,59.9592295354,DRL_task,1,102,
2,0,2,0,,,5.5227689743,178,73,3,1876.68864703,5,,,,,,,2017_Jul_17_1109,59.9592295354,DRL_task,1,102,
2,0,2,0,,,6.54165792465,179,74,3,1883.22934103,5,,,,,,,2017_Jul_17_1109,59.9592295354,DRL_task,1,102,
2,0,2,0,,,4.67195701599,179,75,3,1887.9009912,5,,,,,,,2017_Jul_17_1109,59.9592295354,DRL_task,1,102,
2,0,2,0,,,5.17219901085,180,76,3,1893.07355618,5,,,,,,,2017_Jul_17_1109,59.9592295354,DRL_task,1,102,
2,0,2,0,,,6.43110704422,181,77,3,1899.51401615,5,,,,,,,2017_Jul_17_1109,59.9592295354,DRL_task,1,102,
2,0,2,0,,,5.73118495941,182,78,3,1905.23678017,5,,,,,,,2017_Jul_17_1109,59.9592295354,DRL_task,1,102,
2,0,2,0,,,4.82185792923,182,79,3,1910.05895615,5,,,,,,,2017_Jul_17_1109,59.9592295354,DRL_task,1,102,
2,0,2,0,,,,,,,,,"['space', 'space', 'space', 'space', 'space', 'space', 'space', 'space', 'space', 'space', 'space', 'space', 'space', 'space', 'space', 'space', 'space', 'space', 'space', 'space', 'space', 'space', 'space', 'space', 'space', 'space', 'space', 'space', 'space', 'space', 'space', 'space', 'space', 'space', 'space', 'space', 'space', 'space', 'space', 'space', 'space', 'space', 'space', 'space', 'space', 'space', 'space', 'space', 'space', 'space', 'space', 'space', 'space', 'space', 'space', 'space', 'space', 'space', 'space', 'space', 'space', 'space', 'space', 'space', 'space', 'space', 'space', 'space', 'space', 'space', 'space', 'space', 'space', 'space', 'space', 'space', 'space', 'space', 'space']","[5.091383934020996, 12.949546098709106, 21.742539882659912, 27.864711046218872, 33.30406999588013, 38.89355993270874, 47.955178022384644, 54.44530200958252, 59.83348798751831, 70.27815103530884, 75.90105605125427, 82.49212193489075, 96.75870108604431, 109.12101888656616, 119.61609387397766, 124.40618300437927, 135.86740589141846, 141.89193487167358, 147.63057208061218, 159.04419898986816, 181.38569808006287, 187.20747590065002, 195.2510950565338, 204.84472107887268, 225.71656894683838, 249.52592086791992, 253.7474489212036, 258.3524971008301, 272.86978101730347, 279.5936779975891, 285.46730303764343, 294.010125875473, 299.43120789527893, 309.7269608974457, 313.74859499931335, 319.0706009864807, 325.1441159248352, 338.2921929359436, 344.78163409233093, 363.2025558948517, 369.9754900932312, 381.6397829055786, 387.74507308006287, 393.66973209381104, 403.23020792007446, 407.96922993659973, 417.54486989974976, 423.51789808273315, 428.80708599090576, 433.34666991233826, 434.96387004852295, 446.0429210662842, 460.1085488796234, 461.4935519695282, 467.58334493637085, 472.305212020874, 476.72836208343506, 481.24968791007996, 486.85441994667053, 493.64667987823486, 499.56989192962646, 505.34292101860046, 509.7980179786682, 513.5173869132996, 517.6717391014099, 521.4270858764648, 528.2350618839264, 535.3247530460358, 541.198961019516, 546.104544878006, 551.5426499843597, 558.4502620697021, 563.9730310440063, 570.5146889686584, 575.1866459846497, 580.3588449954987, 586.7899520397186, 592.5211369991302, 597.34299492836]",space,29.2670879364,,,2017_Jul_17_1109,59.9592295354,DRL_task,1,102,
3,0,3,0,,,0.00217199325562,182,1,4,1943.21209812,5,,,,,,,2017_Jul_17_1109,59.9592295354,DRL_task,1,102,
3,0,3,0,,,3.26424598694,182,2,4,1946.46563816,5,,,,,,,2017_Jul_17_1109,59.9592295354,DRL_task,1,102,
3,0,3,0,,,4.98984599113,182,3,4,1951.48799706,5,,,,,,,2017_Jul_17_1109,59.9592295354,DRL_task,1,102,
3,0,3,0,,,2.88695287704,182,4,4,1954.34096813,5,,,,,,,2017_Jul_17_1109,59.9592295354,DRL_task,1,102,
3,0,3,0,,,5.37126493454,183,5,4,1959.71354914,5,,,,,,,2017_Jul_17_1109,59.9592295354,DRL_task,1,102,
3,0,3,0,,,6.95852899551,184,6,4,1966.67139316,5,,,,,,,2017_Jul_17_1109,59.9592295354,DRL_task,1,102,
3,0,3,0,,,6.7575571537,185,7,4,1973.42839909,5,,,,,,,2017_Jul_17_1109,59.9592295354,DRL_task,1,102,
3,0,3,0,,,5.98811888695,186,8,4,1979.41821504,5,,,,,,,2017_Jul_17_1109,59.9592295354,DRL_task,1,102,
3,0,3,0,,,6.20657896996,187,9,4,1985.62480903,5,,,,,,,2017_Jul_17_1109,59.9592295354,DRL_task,1,102,
3,0,3,0,,,4.85659408569,187,10,4,1990.47939801,5,,,,,,,2017_Jul_17_1109,59.9592295354,DRL_task,1,102,
3,0,3,0,,,5.33764791489,188,11,4,1995.81873918,5,,,,,,,2017_Jul_17_1109,59.9592295354,DRL_task,1,102,
3,0,3,0,,,4.35564398766,188,12,4,2000.17308211,5,,,,,,,2017_Jul_17_1109,59.9592295354,DRL_task,1,102,
3,0,3,0,,,5.4880900383,189,13,4,2005.66247416,5,,,,,,,2017_Jul_17_1109,59.9592295354,DRL_task,1,102,
3,0,3,0,,,5.29033517838,190,14,4,2010.98505402,5,,,,,,,2017_Jul_17_1109,59.9592295354,DRL_task,1,102,
3,0,3,0,,,4.63790678978,190,15,4,2015.58978915,5,,,,,,,2017_Jul_17_1109,59.9592295354,DRL_task,1,102,
3,0,3,0,,,5.28791117668,191,16,4,2020.87859702,5,,,,,,,2017_Jul_17_1109,59.9592295354,DRL_task,1,102,
3,0,3,0,,,1.06774497032,191,17,4,2021.94634008,5,,,,,,,2017_Jul_17_1109,59.9592295354,DRL_task,1,102,
3,0,3,0,,,5.30690288544,192,18,4,2027.25207305,5,,,,,,,2017_Jul_17_1109,59.9592295354,DRL_task,1,102,
3,0,3,0,,,6.68893408775,193,19,4,2033.94249105,5,,,,,,,2017_Jul_17_1109,59.9592295354,DRL_task,1,102,
3,0,3,0,,,2.40378499031,193,20,4,2036.3450501,5,,,,,,,2017_Jul_17_1109,59.9592295354,DRL_task,1,102,
3,0,3,0,,,11.0618948936,194,21,4,2047.4067502,5,,,,,,,2017_Jul_17_1109,59.9592295354,DRL_task,1,102,
3,0,3,0,,,6.95608520508,195,22,4,2054.36395812,5,,,,,,,2017_Jul_17_1109,59.9592295354,DRL_task,1,102,
3,0,3,0,,,0.81858587265,195,23,4,2055.18167019,5,,,,,,,2017_Jul_17_1109,59.9592295354,DRL_task,1,102,
3,0,3,0,,,8.59116196632,196,24,4,2063.77403712,5,,,,,,,2017_Jul_17_1109,59.9592295354,DRL_task,1,102,
3,0,3,0,,,3.92221498489,196,25,4,2067.69466209,5,,,,,,,2017_Jul_17_1109,59.9592295354,DRL_task,1,102,
3,0,3,0,,,5.40560102463,197,26,4,2073.10058498,5,,,,,,,2017_Jul_17_1109,59.9592295354,DRL_task,1,102,
3,0,3,0,,,6.29009199142,198,27,4,2079.39042401,5,,,,,,,2017_Jul_17_1109,59.9592295354,DRL_task,1,102,
3,0,3,0,,,6.38866400719,199,28,4,2085.7806251,5,,,,,,,2017_Jul_17_1109,59.9592295354,DRL_task,1,102,
3,0,3,0,,,1.71862792969,199,29,4,2087.49892902,5,,,,,,,2017_Jul_17_1109,59.9592295354,DRL_task,1,102,
3,0,3,0,,,7.55910205841,200,30,4,2095.05713415,5,,,,,,,2017_Jul_17_1109,59.9592295354,DRL_task,1,102,
3,0,3,0,,,5.2388279438,201,31,4,2100.29595804,5,,,,,,,2017_Jul_17_1109,59.9592295354,DRL_task,1,102,
3,0,3,0,,,10.2764890194,202,32,4,2110.57333016,5,,,,,,,2017_Jul_17_1109,59.9592295354,DRL_task,1,102,
3,0,3,0,,,5.87475419044,203,33,4,2116.48243213,5,,,,,,,2017_Jul_17_1109,59.9592295354,DRL_task,1,102,
3,0,3,0,,,6.23933196068,204,34,4,2122.68615007,5,,,,,,,2017_Jul_17_1109,59.9592295354,DRL_task,1,102,
3,0,3,0,,,7.1241338253,205,35,4,2129.81032515,5,,,,,,,2017_Jul_17_1109,59.9592295354,DRL_task,1,102,
3,0,3,0,,,7.37457323074,206,36,4,2137.18480515,5,,,,,,,2017_Jul_17_1109,59.9592295354,DRL_task,1,102,
3,0,3,0,,,4.05445694923,206,37,4,2141.27248096,5,,,,,,,2017_Jul_17_1109,59.9592295354,DRL_task,1,102,
3,0,3,0,,,3.95252895355,206,38,4,2145.19350505,5,,,,,,,2017_Jul_17_1109,59.9592295354,DRL_task,1,102,
3,0,3,0,,,7.7915558815,207,39,4,2152.98500299,5,,,,,,,2017_Jul_17_1109,59.9592295354,DRL_task,1,102,
3,0,3,0,,,9.29430699348,208,40,4,2162.27810597,5,,,,,,,2017_Jul_17_1109,59.9592295354,DRL_task,1,102,
3,0,3,0,,,6.52253818512,209,41,4,2168.80157113,5,,,,,,,2017_Jul_17_1109,59.9592295354,DRL_task,1,102,
3,0,3,0,,,6.17443203926,210,42,4,2174.97470903,5,,,,,,,2017_Jul_17_1109,59.9592295354,DRL_task,1,102,
3,0,3,0,,,2.05201387405,210,43,4,2177.02708912,5,,,,,,,2017_Jul_17_1109,59.9592295354,DRL_task,1,102,
3,0,3,0,,,3.90417790413,210,44,4,2180.93117213,5,,,,,,,2017_Jul_17_1109,59.9592295354,DRL_task,1,102,
3,0,3,0,,,2.93632602692,210,45,4,2183.86756301,5,,,,,,,2017_Jul_17_1109,59.9592295354,DRL_task,1,102,
3,0,3,0,,,2.10224318504,210,46,4,2185.96984315,5,,,,,,,2017_Jul_17_1109,59.9592295354,DRL_task,1,102,
3,0,3,0,,,5.38803291321,211,47,4,2191.35870504,5,,,,,,,2017_Jul_17_1109,59.9592295354,DRL_task,1,102,
3,0,3,0,,,3.23652791977,211,48,4,2194.59565902,5,,,,,,,2017_Jul_17_1109,59.9592295354,DRL_task,1,102,
3,0,3,0,,,7.45794200897,212,49,4,2202.05349612,5,,,,,,,2017_Jul_17_1109,59.9592295354,DRL_task,1,102,
3,0,3,0,,,6.62483811378,213,50,4,2208.67677617,5,,,,,,,2017_Jul_17_1109,59.9592295354,DRL_task,1,102,
3,0,3,0,,,7.32313394547,214,51,4,2216.00155902,5,,,,,,,2017_Jul_17_1109,59.9592295354,DRL_task,1,102,
3,0,3,0,,,5.98983693123,215,52,4,2221.99099803,5,,,,,,,2017_Jul_17_1109,59.9592295354,DRL_task,1,102,
3,0,3,0,,,7.99166297913,216,53,4,2229.98305702,5,,,,,,,2017_Jul_17_1109,59.9592295354,DRL_task,1,102,
3,0,3,0,,,5.78955602646,217,54,4,2235.7722671,5,,,,,,,2017_Jul_17_1109,59.9592295354,DRL_task,1,102,
3,0,3,0,,,8.70923399925,218,55,4,2244.48147702,5,,,,,,,2017_Jul_17_1109,59.9592295354,DRL_task,1,102,
3,0,3,0,,,6.65706110001,219,56,4,2251.13852,5,,,,,,,2017_Jul_17_1109,59.9592295354,DRL_task,1,102,
3,0,3,0,,,9.14414000511,220,57,4,2260.28146315,5,,,,,,,2017_Jul_17_1109,59.9592295354,DRL_task,1,102,
3,0,3,0,,,2.9697329998,220,58,4,2263.25147605,5,,,,,,,2017_Jul_17_1109,59.9592295354,DRL_task,1,102,
3,0,3,0,,,4.3547949791,220,59,4,2267.60584903,5,,,,,,,2017_Jul_17_1109,59.9592295354,DRL_task,1,102,
3,0,3,0,,,6.57211303711,221,60,4,2274.17969012,5,,,,,,,2017_Jul_17_1109,59.9592295354,DRL_task,1,102,
3,0,3,0,,,5.47384881973,222,61,4,2279.65189719,5,,,,,,,2017_Jul_17_1109,59.9592295354,DRL_task,1,102,
3,0,3,0,,,8.65911817551,223,62,4,2288.32782316,5,,,,,,,2017_Jul_17_1109,59.9592295354,DRL_task,1,102,
3,0,3,0,,,1.90086102486,223,63,4,2290.21314597,5,,,,,,,2017_Jul_17_1109,59.9592295354,DRL_task,1,102,
3,0,3,0,,,6.08974695206,224,64,4,2296.3028481,5,,,,,,,2017_Jul_17_1109,59.9592295354,DRL_task,1,102,
3,0,3,0,,,9.12756800652,225,65,4,2305.42924619,5,,,,,,,2017_Jul_17_1109,59.9592295354,DRL_task,1,102,
3,0,3,0,,,8.50875091553,226,66,4,2313.93837214,5,,,,,,,2017_Jul_17_1109,59.9592295354,DRL_task,1,102,
3,0,3,0,,,4.42013907433,226,67,4,2318.359658,5,,,,,,,2017_Jul_17_1109,59.9592295354,DRL_task,1,102,
3,0,3,0,,,8.99315285683,227,68,4,2327.35236001,5,,,,,,,2017_Jul_17_1109,59.9592295354,DRL_task,1,102,
3,0,3,0,,,1.75279521942,227,69,4,2329.10437608,5,,,,,,,2017_Jul_17_1109,59.9592295354,DRL_task,1,102,
3,0,3,0,,,7.25639200211,228,70,4,2336.36200714,5,,,,,,,2017_Jul_17_1109,59.9592295354,DRL_task,1,102,
3,0,3,0,,,14.5322048664,229,71,4,2350.8938911,5,,,,,,,2017_Jul_17_1109,59.9592295354,DRL_task,1,102,
3,0,3,0,,,6.35670900345,230,72,4,2357.25061512,5,,,,,,,2017_Jul_17_1109,59.9592295354,DRL_task,1,102,
3,0,3,0,,,4.53809690475,230,73,4,2361.78862619,5,,,,,,,2017_Jul_17_1109,59.9592295354,DRL_task,1,102,
3,0,3,0,,,8.79388022423,231,74,4,2370.58132601,5,,,,,,,2017_Jul_17_1109,59.9592295354,DRL_task,1,102,
3,0,3,0,,,4.57153081894,231,75,4,2375.15284514,5,,,,,,,2017_Jul_17_1109,59.9592295354,DRL_task,1,102,
3,0,3,0,,,12.0280411243,232,76,4,2387.18239903,5,,,,,,,2017_Jul_17_1109,59.9592295354,DRL_task,1,102,
3,0,3,0,,,11.4453179836,233,77,4,2398.62780714,5,,,,,,,2017_Jul_17_1109,59.9592295354,DRL_task,1,102,
3,0,3,0,,,5.65756297112,234,78,4,2404.28358412,5,,,,,,,2017_Jul_17_1109,59.9592295354,DRL_task,1,102,
3,0,3,0,,,3.11872601509,234,79,4,2407.40360212,5,,,,,,,2017_Jul_17_1109,59.9592295354,DRL_task,1,102,
3,0,3,0,,,13.1803069115,235,80,4,2420.58415699,5,,,,,,,2017_Jul_17_1109,59.9592295354,DRL_task,1,102,
3,0,3,0,,,6.35666298866,236,81,4,2426.94105411,5,,,,,,,2017_Jul_17_1109,59.9592295354,DRL_task,1,102,
3,0,3,0,,,5.00664615631,237,82,4,2431.96307516,5,,,,,,,2017_Jul_17_1109,59.9592295354,DRL_task,1,102,
3,0,3,0,,,3.93741297722,237,83,4,2435.90038109,5,,,,,,,2017_Jul_17_1109,59.9592295354,DRL_task,1,102,
3,0,3,0,,,5.03755688667,238,84,4,2440.92236805,5,,,,,,,2017_Jul_17_1109,59.9592295354,DRL_task,1,102,
3,0,3,0,,,5.23880410194,239,85,4,2446.16116214,5,,,,,,,2017_Jul_17_1109,59.9592295354,DRL_task,1,102,
3,0,3,0,,,5.25684690475,240,86,4,2451.41675806,5,,,,,,,2017_Jul_17_1109,59.9592295354,DRL_task,1,102,
3,0,3,0,,,5.25534415245,241,87,4,2456.67245007,5,,,,,,,2017_Jul_17_1109,59.9592295354,DRL_task,1,102,
3,0,3,0,,,4.53709077835,241,88,4,2461.21043205,5,,,,,,,2017_Jul_17_1109,59.9592295354,DRL_task,1,102,
3,0,3,0,,,5.45572113991,242,89,4,2466.66616702,5,,,,,,,2017_Jul_17_1109,59.9592295354,DRL_task,1,102,
3,0,3,0,,,5.22208786011,243,90,4,2471.89601398,5,,,,,,,2017_Jul_17_1109,59.9592295354,DRL_task,1,102,
3,0,3,0,,,5.68970012665,244,91,4,2477.57774997,5,,,,,,,2017_Jul_17_1109,59.9592295354,DRL_task,1,102,
3,0,3,0,,,5.73922204971,245,92,4,2483.317132,5,,,,,,,2017_Jul_17_1109,59.9592295354,DRL_task,1,102,
3,0,3,0,,,4.25430083275,245,93,4,2487.57179499,5,,,,,,,2017_Jul_17_1109,59.9592295354,DRL_task,1,102,
3,0,3,0,,,7.27618908882,246,94,4,2494.8626461,5,,,,,,,2017_Jul_17_1109,59.9592295354,DRL_task,1,102,
3,0,3,0,,,5.62213802338,247,95,4,2500.46858597,5,,,,,,,2017_Jul_17_1109,59.9592295354,DRL_task,1,102,
3,0,3,0,,,6.38995790482,248,96,4,2506.85883617,5,,,,,,,2017_Jul_17_1109,59.9592295354,DRL_task,1,102,
3,0,3,0,,,5.48916220665,249,97,4,2512.34791303,5,,,,,,,2017_Jul_17_1109,59.9592295354,DRL_task,1,102,
3,0,3,0,,,6.07355690002,250,98,4,2518.4207232,5,,,,,,,2017_Jul_17_1109,59.9592295354,DRL_task,1,102,
3,0,3,0,,,4.16944789886,250,99,4,2522.59190702,5,,,,,,,2017_Jul_17_1109,59.9592295354,DRL_task,1,102,
3,0,3,0,,,5.15659618378,251,100,4,2527.74755502,5,,,,,,,2017_Jul_17_1109,59.9592295354,DRL_task,1,102,
3,0,3,0,,,4.83722901344,251,101,4,2532.58596611,5,,,,,,,2017_Jul_17_1109,59.9592295354,DRL_task,1,102,
3,0,3,0,,,5.2238008976,252,102,4,2537.80804014,5,,,,,,,2017_Jul_17_1109,59.9592295354,DRL_task,1,102,
3,0,3,0,,,,,,,,,"['space', 'space', 'space', 'space', 'space', 'space', 'space', 'space', 'space', 'space', 'space', 'space', 'space', 'space', 'space', 'space', 'space', 'space', 'space', 'space', 'space', 'space', 'space', 'space', 'space', 'space', 'space', 'space', 'space', 'space', 'space', 'space', 'space', 'space', 'space', 'space', 'space', 'space', 'space', 'space', 'space', 'space', 'space', 'space', 'space', 'space', 'space', 'space', 'space', 'space', 'space', 'space', 'space', 'space', 'space', 'space', 'space', 'space', 'space', 'space', 'space', 'space', 'space', 'space', 'space', 'space', 'space', 'space', 'space', 'space', 'space', 'space', 'space', 'space', 'space', 'space', 'space', 'space', 'space', 'space', 'space', 'space', 'space', 'space', 'space', 'space', 'space', 'space', 'space', 'space', 'space', 'space', 'space', 'space', 'space', 'space', 'space', 'space', 'space', 'space', 'space', 'space']","[0.0021719932556152344, 3.266417980194092, 8.256263971328735, 11.143216848373413, 16.514481782913208, 23.473010778427124, 30.230567932128906, 36.21868681907654, 42.42526578903198, 47.28185987472534, 52.619507789611816, 56.975151777267456, 62.46324181556702, 67.75357699394226, 72.39148378372192, 77.67939496040344, 78.7471399307251, 84.05404281616211, 90.7429769039154, 93.14676189422607, 104.20865678787231, 111.16474199295044, 111.98332786560059, 120.57448983192444, 124.49670481681824, 129.90230584144592, 136.19239783287048, 142.58106184005737, 144.29968976974487, 151.85879182815552, 157.0976197719574, 167.37410879135132, 173.24886298179626, 179.48819494247437, 186.6123287677765, 193.9869019985199, 198.0413589477539, 201.99388790130615, 209.7854437828064, 219.0797507762909, 225.60228896141052, 231.7767210006714, 233.82873487472534, 237.73291277885437, 240.66923880577087, 242.7714819908142, 248.15951490402222, 251.3960428237915, 258.8539848327637, 265.47882294654846, 272.80195689201355, 278.7917938232422, 286.78345680236816, 292.5730128288269, 301.2822468280792, 307.9393079280853, 317.083447933197, 320.05318093299866, 324.4079759120941, 330.9800889492035, 336.45393776893616, 345.11305594444275, 347.0139169692993, 353.1036639213562, 362.2312319278717, 370.73998284339905, 375.1601219177246, 384.1532747745514, 385.9060699939728, 393.1624619960785, 407.6946668624878, 414.0513758659363, 418.5894727706909, 427.3833529949188, 431.95488381385803, 443.9829249382019, 455.4282429218292, 461.08580589294434, 464.2045319080353, 477.3848388195038, 483.7415018081665, 488.74814796447754, 492.68556094169617, 497.72311782836914, 502.9619219303131, 508.21876883506775, 513.4741129875183, 518.0112037658691, 523.466924905777, 528.6890127658844, 534.3787128925323, 540.1179349422455, 544.3722357749939, 551.6484248638153, 557.2705628871918, 563.6605207920074, 569.1496829986572, 575.2232398986816, 579.3926877975464, 584.5492839813232, 589.3865129947662, 594.6103138923645]",space,0.152182817459,,,2017_Jul_17_1109,59.9592295354,DRL_task,1,102,
4,0,4,0,,,10.2748918533,253,1,5,2554.85958219,5,,,,,,,2017_Jul_17_1109,59.9592295354,DRL_task,1,102,
4,0,4,0,,,5.48972010612,254,2,5,2560.33185601,5,,,,,,,2017_Jul_17_1109,59.9592295354,DRL_task,1,102,
4,0,4,0,,,4.92150092125,254,3,5,2565.27065611,5,,,,,,,2017_Jul_17_1109,59.9592295354,DRL_task,1,102,
4,0,4,0,,,6.10800004005,255,4,5,2571.37688208,5,,,,,,,2017_Jul_17_1109,59.9592295354,DRL_task,1,102,
4,0,4,0,,,6.43861508369,256,5,5,2577.81718206,5,,,,,,,2017_Jul_17_1109,59.9592295354,DRL_task,1,102,
4,0,4,0,,,4.84000897408,256,6,5,2582.63872004,5,,,,,,,2017_Jul_17_1109,59.9592295354,DRL_task,1,102,
4,0,4,0,,,6.08854603767,257,7,5,2588.72837019,5,,,,,,,2017_Jul_17_1109,59.9592295354,DRL_task,1,102,
4,0,4,0,,,3.787348032,257,8,5,2592.51577806,5,,,,,,,2017_Jul_17_1109,59.9592295354,DRL_task,1,102,
4,0,4,0,,,4.18751096725,257,9,5,2596.70330906,5,,,,,,,2017_Jul_17_1109,59.9592295354,DRL_task,1,102,
4,0,4,0,,,4.28799796104,257,10,5,2600.99140406,5,,,,,,,2017_Jul_17_1109,59.9592295354,DRL_task,1,102,
4,0,4,0,,,4.28786087036,257,11,5,2605.27950811,5,,,,,,,2017_Jul_17_1109,59.9592295354,DRL_task,1,102,
4,0,4,0,,,5.03867506981,258,12,5,2610.31795597,5,,,,,,,2017_Jul_17_1109,59.9592295354,DRL_task,1,102,
4,0,4,0,,,0.15140414238,258,13,5,2610.48479414,5,,,,,,,2017_Jul_17_1109,59.9592295354,DRL_task,1,102,
4,0,4,0,,,3.90294981003,258,14,5,2614.3722322,5,,,,,,,2017_Jul_17_1109,59.9592295354,DRL_task,1,102,
4,0,4,0,,,5.389950037,259,15,5,2619.76142812,5,,,,,,,2017_Jul_17_1109,59.9592295354,DRL_task,1,102,
4,0,4,0,,,0.182311058044,259,16,5,2619.94489002,5,,,,,,,2017_Jul_17_1109,59.9592295354,DRL_task,1,102,
4,0,4,0,,,6.37341094017,260,17,5,2626.31830406,5,,,,,,,2017_Jul_17_1109,59.9592295354,DRL_task,1,102,
4,0,4,0,,,3.8219499588,260,18,5,2630.13899016,5,,,,,,,2017_Jul_17_1109,59.9592295354,DRL_task,1,102,
4,0,4,0,,,4.30350613594,260,19,5,2634.44356298,5,,,,,,,2017_Jul_17_1109,59.9592295354,DRL_task,1,102,
4,0,4,0,,,4.82179093361,260,20,5,2639.26536202,5,,,,,,,2017_Jul_17_1109,59.9592295354,DRL_task,1,102,
4,0,4,0,,,5.30680298805,261,21,5,2644.57075119,5,,,,,,,2017_Jul_17_1109,59.9592295354,DRL_task,1,102,
4,0,4,0,,,4.57142305374,261,22,5,2649.14228511,5,,,,,,,2017_Jul_17_1109,59.9592295354,DRL_task,1,102,
4,0,4,0,,,5.18754792213,262,23,5,2654.33124208,5,,,,,,,2017_Jul_17_1109,59.9592295354,DRL_task,1,102,
4,0,4,0,,,5.08922410011,263,24,5,2659.41986704,5,,,,,,,2017_Jul_17_1109,59.9592295354,DRL_task,1,102,
4,0,4,0,,,5.30632305145,264,25,5,2664.72561908,5,,,,,,,2017_Jul_17_1109,59.9592295354,DRL_task,1,102,
4,0,4,0,,,6.29013895988,265,26,5,2671.03219819,5,,,,,,,2017_Jul_17_1109,59.9592295354,DRL_task,1,102,
4,0,4,0,,,6.623721838,266,27,5,2677.6391511,5,,,,,,,2017_Jul_17_1109,59.9592295354,DRL_task,1,102,
4,0,4,0,,,4.88822603226,266,28,5,2682.52766013,5,,,,,,,2017_Jul_17_1109,59.9592295354,DRL_task,1,102,
4,0,4,0,,,3.98596000671,266,29,5,2686.51532006,5,,,,,,,2017_Jul_17_1109,59.9592295354,DRL_task,1,102,
4,0,4,0,,,1.26848602295,266,30,5,2687.7833612,5,,,,,,,2017_Jul_17_1109,59.9592295354,DRL_task,1,102,
4,0,4,0,,,5.52248907089,267,31,5,2693.30587602,5,,,,,,,2017_Jul_17_1109,59.9592295354,DRL_task,1,102,
4,0,4,0,,,4.7396068573,267,32,5,2698.04411817,5,,,,,,,2017_Jul_17_1109,59.9592295354,DRL_task,1,102,
4,0,4,0,,,5.45561909676,268,33,5,2703.49995804,5,,,,,,,2017_Jul_17_1109,59.9592295354,DRL_task,1,102,
4,0,4,0,,,7.94030189514,269,34,5,2711.458215,5,,,,,,,2017_Jul_17_1109,59.9592295354,DRL_task,1,102,
4,0,4,0,,,6.52347612381,270,35,5,2717.98201609,5,,,,,,,2017_Jul_17_1109,59.9592295354,DRL_task,1,102,
4,0,4,0,,,4.37159395218,270,36,5,2722.33642006,5,,,,,,,2017_Jul_17_1109,59.9592295354,DRL_task,1,102,
4,0,4,0,,,5.67311906815,271,37,5,2728.02560115,5,,,,,,,2017_Jul_17_1109,59.9592295354,DRL_task,1,102,
4,0,4,0,,,4.5380730629,271,38,5,2732.547122,5,,,,,,,2017_Jul_17_1109,59.9592295354,DRL_task,1,102,
4,0,4,0,,,6.45676183701,272,39,5,2739.0037961,5,,,,,,,2017_Jul_17_1109,59.9592295354,DRL_task,1,102,
4,0,4,0,,,5.65596199036,273,40,5,2744.65988708,5,,,,,,,2017_Jul_17_1109,59.9592295354,DRL_task,1,102,
4,0,4,0,,,4.97197699547,273,41,5,2749.63190913,5,,,,,,,2017_Jul_17_1109,59.9592295354,DRL_task,1,102,
4,0,4,0,,,5.02282905579,274,42,5,2754.65394998,5,,,,,,,2017_Jul_17_1109,59.9592295354,DRL_task,1,102,
4,0,4,0,,,4.90429496765,274,43,5,2759.55897212,5,,,,,,,2017_Jul_17_1109,59.9592295354,DRL_task,1,102,
4,0,4,0,,,10.1619889736,275,44,5,2769.73661208,5,,,,,,,2017_Jul_17_1109,59.9592295354,DRL_task,1,102,
4,0,4,0,,,5.53775906563,276,45,5,2775.25890613,5,,,,,,,2017_Jul_17_1109,59.9592295354,DRL_task,1,102,
4,0,4,0,,,4.95491313934,276,46,5,2780.21425915,5,,,,,,,2017_Jul_17_1109,59.9592295354,DRL_task,1,102,
4,0,4,0,,,6.69172477722,277,47,5,2786.90470004,5,,,,,,,2017_Jul_17_1109,59.9592295354,DRL_task,1,102,
4,0,4,0,,,9.52687120438,278,48,5,2796.43116498,5,,,,,,,2017_Jul_17_1109,59.9592295354,DRL_task,1,102,
4,0,4,0,,,7.07298088074,279,49,5,2803.50557709,5,,,,,,,2017_Jul_17_1109,59.9592295354,DRL_task,1,102,
4,0,4,0,,,5.22218704224,280,50,5,2808.72769713,5,,,,,,,2017_Jul_17_1109,59.9592295354,DRL_task,1,102,
4,0,4,0,,,8.59344506264,281,51,5,2817.32017207,5,,,,,,,2017_Jul_17_1109,59.9592295354,DRL_task,1,102,
4,0,4,0,,,4.73844695091,281,52,5,2822.07524109,5,,,,,,,2017_Jul_17_1109,59.9592295354,DRL_task,1,102,
4,0,4,0,,,5.80601406097,282,53,5,2827.86459899,5,,,,,,,2017_Jul_17_1109,59.9592295354,DRL_task,1,102,
4,0,4,0,,,8.15769886971,283,54,5,2836.02302814,5,,,,,,,2017_Jul_17_1109,59.9592295354,DRL_task,1,102,
4,0,4,0,,,7.57477498055,284,55,5,2843.59777308,5,,,,,,,2017_Jul_17_1109,59.9592295354,DRL_task,1,102,
4,0,4,0,,,5.65679717064,285,56,5,2849.253896,5,,,,,,,2017_Jul_17_1109,59.9592295354,DRL_task,1,102,
4,0,4,0,,,4.30920290947,285,57,5,2853.57505202,5,,,,,,,2017_Jul_17_1109,59.9592295354,DRL_task,1,102,
4,0,4,0,,,5.2677628994,286,58,5,2858.84722805,5,,,,,,,2017_Jul_17_1109,59.9592295354,DRL_task,1,102,
4,0,4,0,,,6.42350411415,287,59,5,2865.27068806,5,,,,,,,2017_Jul_17_1109,59.9592295354,DRL_task,1,102,
4,0,4,0,,,5.6224758625,288,60,5,2870.89340711,5,,,,,,,2017_Jul_17_1109,59.9592295354,DRL_task,1,102,
4,0,4,0,,,5.15535116196,289,61,5,2876.04883814,5,,,,,,,2017_Jul_17_1109,59.9592295354,DRL_task,1,102,
4,0,4,0,,,4.92212986946,289,62,5,2880.97078013,5,,,,,,,2017_Jul_17_1109,59.9592295354,DRL_task,1,102,
4,0,4,0,,,4.28800010681,289,63,5,2885.25827003,5,,,,,,,2017_Jul_17_1109,59.9592295354,DRL_task,1,102,
4,0,4,0,,,5.48828792572,290,64,5,2890.7474792,5,,,,,,,2017_Jul_17_1109,59.9592295354,DRL_task,1,102,
4,0,4,0,,,6.82420802116,291,65,5,2897.57093906,5,,,,,,,2017_Jul_17_1109,59.9592295354,DRL_task,1,102,
4,0,4,0,,,6.23904705048,292,66,5,2903.81049919,5,,,,,,,2017_Jul_17_1109,59.9592295354,DRL_task,1,102,
4,0,4,0,,,4.88865995407,292,67,5,2908.69869399,5,,,,,,,2017_Jul_17_1109,59.9592295354,DRL_task,1,102,
4,0,4,0,,,3.58734512329,292,68,5,2912.28572798,5,,,,,,,2017_Jul_17_1109,59.9592295354,DRL_task,1,102,
4,0,4,0,,,3.96985292435,292,69,5,2916.25644398,5,,,,,,,2017_Jul_17_1109,59.9592295354,DRL_task,1,102,
4,0,4,0,,,4.93832206726,292,70,5,2921.19487405,5,,,,,,,2017_Jul_17_1109,59.9592295354,DRL_task,1,102,
4,0,4,0,,,7.72373700142,293,71,5,2928.90247202,5,,,,,,,2017_Jul_17_1109,59.9592295354,DRL_task,1,102,
4,0,4,0,,,5.47218179703,294,72,5,2934.3746841,5,,,,,,,2017_Jul_17_1109,59.9592295354,DRL_task,1,102,
4,0,4,0,,,5.07346105576,295,73,5,2939.46310997,5,,,,,,,2017_Jul_17_1109,59.9592295354,DRL_task,1,102,
4,0,4,0,,,5.67190313339,296,74,5,2945.13574314,5,,,,,,,2017_Jul_17_1109,59.9592295354,DRL_task,1,102,
4,0,4,0,,,5.15397286415,297,75,5,2950.30772614,5,,,,,,,2017_Jul_17_1109,59.9592295354,DRL_task,1,102,
4,0,4,0,,,4.98874902725,297,76,5,2955.26268101,5,,,,,,,2017_Jul_17_1109,59.9592295354,DRL_task,1,102,
4,0,4,0,,,6.07267594337,298,77,5,2961.33563113,5,,,,,,,2017_Jul_17_1109,59.9592295354,DRL_task,1,102,
4,0,4,0,,,5.68916296959,299,78,5,2967.02458715,5,,,,,,,2017_Jul_17_1109,59.9592295354,DRL_task,1,102,
4,0,4,0,,,4.70481109619,299,79,5,2971.7461381,5,,,,,,,2017_Jul_17_1109,59.9592295354,DRL_task,1,102,
4,0,4,0,,,5.13862800598,300,80,5,2976.88474607,5,,,,,,,2017_Jul_17_1109,59.9592295354,DRL_task,1,102,
4,0,4,0,,,4.75625300407,300,81,5,2981.63953114,5,,,,,,,2017_Jul_17_1109,59.9592295354,DRL_task,1,102,
4,0,4,0,,,5.45384001732,301,82,5,2987.07849002,5,,,,,,,2017_Jul_17_1109,59.9592295354,DRL_task,1,102,
4,0,4,0,,,7.05867004395,302,83,5,2994.15212202,5,,,,,,,2017_Jul_17_1109,59.9592295354,DRL_task,1,102,
4,0,4,0,,,5.39743900299,303,84,5,2999.54129601,5,,,,,,,2017_Jul_17_1109,59.9592295354,DRL_task,1,102,
4,0,4,0,,,5.96383786201,304,85,5,3005.51379204,5,,,,,,,2017_Jul_17_1109,59.9592295354,DRL_task,1,102,
4,0,4,0,,,6.35667800903,305,86,5,3011.87011218,5,,,,,,,2017_Jul_17_1109,59.9592295354,DRL_task,1,102,
4,0,4,0,,,5.23736405373,306,87,5,3017.09224606,5,,,,,,,2017_Jul_17_1109,59.9592295354,DRL_task,1,102,
4,0,4,0,,,5.088504076,307,88,5,3022.19713998,5,,,,,,,2017_Jul_17_1109,59.9592295354,DRL_task,1,102,
4,0,4,0,,,5.52222490311,308,89,5,3027.7028091,5,,,,,,,2017_Jul_17_1109,59.9592295354,DRL_task,1,102,
4,0,4,0,,,6.75693798065,309,90,5,3034.47653818,5,,,,,,,2017_Jul_17_1109,59.9592295354,DRL_task,1,102,
4,0,4,0,,,6.5742919445,310,91,5,3041.06650209,5,,,,,,,2017_Jul_17_1109,59.9592295354,DRL_task,1,102,
4,0,4,0,,,6.94047808647,311,92,5,3047.99016714,5,,,,,,,2017_Jul_17_1109,59.9592295354,DRL_task,1,102,
4,0,4,0,,,5.13758301735,312,93,5,3053.11209416,5,,,,,,,2017_Jul_17_1109,59.9592295354,DRL_task,1,102,
4,0,4,0,,,5.38989591599,313,94,5,3058.51777506,5,,,,,,,2017_Jul_17_1109,59.9592295354,DRL_task,1,102,
4,0,4,0,,,5.35076212883,314,95,5,3063.85627818,5,,,,,,,2017_Jul_17_1109,59.9592295354,DRL_task,1,102,
4,0,4,0,,,3.97372889519,314,96,5,3067.84385109,5,,,,,,,2017_Jul_17_1109,59.9592295354,DRL_task,1,102,
4,0,4,0,,,4.17226910591,314,97,5,3072.01437211,5,,,,,,,2017_Jul_17_1109,59.9592295354,DRL_task,1,102,
4,0,4,0,,,5.67108988762,315,98,5,3077.7038641,5,,,,,,,2017_Jul_17_1109,59.9592295354,DRL_task,1,102,
4,0,4,0,,,5.87286496162,316,99,5,3083.55981803,5,,,,,,,2017_Jul_17_1109,59.9592295354,DRL_task,1,102,
4,0,4,0,,,5.0231552124,317,100,5,3088.5815351,5,,,,,,,2017_Jul_17_1109,59.9592295354,DRL_task,1,102,
4,0,4,0,,,6.65504598618,318,101,5,3095.25519705,5,,,,,,,2017_Jul_17_1109,59.9592295354,DRL_task,1,102,
4,0,4,0,,,6.2246119976,319,102,5,3101.4607501,5,,,,,,,2017_Jul_17_1109,59.9592295354,DRL_task,1,102,
4,0,4,0,,,5.28768491745,320,103,5,3106.75002313,5,,,,,,,2017_Jul_17_1109,59.9592295354,DRL_task,1,102,
4,0,4,0,,,6.17424297333,321,104,5,3112.9231472,5,,,,,,,2017_Jul_17_1109,59.9592295354,DRL_task,1,102,
4,0,4,0,,,12.3113799095,322,105,5,3125.21879816,5,,,,,,,2017_Jul_17_1109,59.9592295354,DRL_task,1,102,
4,0,4,0,,,7.05781722069,323,106,5,3132.29243708,5,,,,,,,2017_Jul_17_1109,59.9592295354,DRL_task,1,102,
4,0,4,0,,,6.22240281105,324,107,5,3138.49899006,5,,,,,,,2017_Jul_17_1109,59.9592295354,DRL_task,1,102,
4,0,4,0,,,,,,,,,"['space', 'space', 'space', 'space', 'space', 'space', 'space', 'space', 'space', 'space', 'space', 'space', 'space', 'space', 'space', 'space', 'space', 'space', 'space', 'space', 'space', 'space', 'space', 'space', 'space', 'space', 'space', 'space', 'space', 'space', 'space', 'space', 'space', 'space', 'space', 'space', 'space', 'space', 'space', 'space', 'space', 'space', 'space', 'space', 'space', 'space', 'space', 'space', 'space', 'space', 'space', 'space', 'space', 'space', 'space', 'space', 'space', 'space', 'space', 'space', 'space', 'space', 'space', 'space', 'space', 'space', 'space', 'space', 'space', 'space', 'space', 'space', 'space', 'space', 'space', 'space', 'space', 'space', 'space', 'space', 'space', 'space', 'space', 'space', 'space', 'space', 'space', 'space', 'space', 'space', 'space', 'space', 'space', 'space', 'space', 'space', 'space', 'space', 'space', 'space', 'space', 'space', 'space', 'space', 'space', 'space', 'space']","[10.27489185333252, 15.764611959457397, 20.686112880706787, 26.79411292076111, 33.232728004455566, 38.072736978530884, 44.161283016204834, 47.948631048202515, 52.13614201545715, 56.424139976501465, 60.71200084686279, 65.75067591667175, 65.90208005905151, 69.80502986907959, 75.19497990608215, 75.37729096412659, 81.75070190429688, 85.57265186309814, 89.8761579990387, 94.6979489326477, 100.00475192070007, 104.57617497444153, 109.76372289657593, 114.85294699668884, 120.15927004814148, 126.44940900802612, 133.07313084602356, 137.96135687828064, 141.9473168849945, 143.21580290794373, 148.73829197883606, 153.47789883613586, 158.93351793289185, 166.87381982803345, 173.39729595184326, 177.76888990402222, 183.44200897216797, 187.9800820350647, 194.4368438720703, 200.09280586242676, 205.0647828578949, 210.08761191368103, 214.9919068813324, 225.15389585494995, 230.691654920578, 235.64656805992126, 242.33829283714294, 251.86516404151917, 258.93814492225647, 264.1603319644928, 272.7537770271301, 277.4922239780426, 283.2982380390167, 291.4559369087219, 299.03071188926697, 304.687509059906, 308.9967119693756, 314.2644748687744, 320.6879789829254, 326.31045484542847, 331.46580600738525, 336.3879358768463, 340.67593598365784, 346.16422390937805, 352.988431930542, 359.22747898101807, 364.1161389350891, 367.7034840583801, 371.67333698272705, 376.6116590499878, 384.33539605140686, 389.80757784843445, 394.88103890419006, 400.5529420375824, 405.7069149017334, 410.6956639289856, 416.76833987236023, 422.45750284194946, 427.16231393814087, 432.3009419441223, 437.0571949481964, 442.51103496551514, 449.56970500946045, 454.9671440124512, 460.93098187446594, 467.28765988349915, 472.52502393722534, 477.61352801322937, 483.13575291633606, 489.8926908969879, 496.4669828414917, 503.40746092796326, 508.5450439453125, 513.9349398612976, 519.2857019901276, 523.2594308853149, 527.4316999912262, 533.1027898788452, 538.9756548404694, 543.9988100528717, 550.6538560390472, 556.8784680366516, 562.1661529541016, 568.3403959274292, 580.6517758369446, 587.7095930576324, 593.9319958686829]",space,42.0608129501,,,2017_Jul_17_1109,59.9592295354,DRL_task,1,102,
5,0,5,0,,,5.41083407402,325,1,6,3193.25495219,5,,,,,,,2017_Jul_17_1109,59.9592295354,DRL_task,1,102,
5,0,5,0,,,6.65780091286,326,2,6,3199.92784405,5,,,,,,,2017_Jul_17_1109,59.9592295354,DRL_task,1,102,
5,0,5,0,,,4.85408401489,326,3,6,3204.80006909,5,,,,,,,2017_Jul_17_1109,59.9592295354,DRL_task,1,102,
5,0,5,0,,,5.84110808372,327,4,6,3210.62252903,5,,,,,,,2017_Jul_17_1109,59.9592295354,DRL_task,1,102,
5,0,5,0,,,6.4726960659,328,5,6,3217.09600401,5,,,,,,,2017_Jul_17_1109,59.9592295354,DRL_task,1,102,
5,0,5,0,,,5.38766098022,329,6,6,3222.48461199,5,,,,,,,2017_Jul_17_1109,59.9592295354,DRL_task,1,102,
5,0,5,0,,,3.85382080078,329,7,6,3226.3218081,5,,,,,,,2017_Jul_17_1109,59.9592295354,DRL_task,1,102,
5,0,5,0,,,6.3581662178,330,8,6,3232.69518614,5,,,,,,,2017_Jul_17_1109,59.9592295354,DRL_task,1,102,
5,0,5,0,,,5.50505399704,331,9,6,3238.20062304,5,,,,,,,2017_Jul_17_1109,59.9592295354,DRL_task,1,102,
5,0,5,0,,,4.18783187866,331,10,6,3242.38825011,5,,,,,,,2017_Jul_17_1109,59.9592295354,DRL_task,1,102,
5,0,5,0,,,2.88508796692,331,11,6,3245.27460003,5,,,,,,,2017_Jul_17_1109,59.9592295354,DRL_task,1,102,
5,0,5,0,,,4.9883210659,331,12,6,3250.24623799,5,,,,,,,2017_Jul_17_1109,59.9592295354,DRL_task,1,102,
5,0,5,0,,,2.93736004829,331,13,6,3253.21602702,5,,,,,,,2017_Jul_17_1109,59.9592295354,DRL_task,1,102,
5,0,5,0,,,7.05741000175,332,14,6,3260.25654411,5,,,,,,,2017_Jul_17_1109,59.9592295354,DRL_task,1,102,
5,0,5,0,,,5.38913297653,333,15,6,3265.64524317,5,,,,,,,2017_Jul_17_1109,59.9592295354,DRL_task,1,102,
5,0,5,0,,,3.51860690117,333,16,6,3269.18249297,5,,,,,,,2017_Jul_17_1109,59.9592295354,DRL_task,1,102,
5,0,5,0,,,3.6038711071,333,17,6,3272.76923609,5,,,,,,,2017_Jul_17_1109,59.9592295354,DRL_task,1,102,
5,0,5,0,,,6.2742869854,334,18,6,3279.04259419,5,,,,,,,2017_Jul_17_1109,59.9592295354,DRL_task,1,102,
5,0,5,0,,,3.28627705574,334,19,6,3282.36254215,5,,,,,,,2017_Jul_17_1109,59.9592295354,DRL_task,1,102,
5,0,5,0,,,5.255671978,335,20,6,3287.58456302,5,,,,,,,2017_Jul_17_1109,59.9592295354,DRL_task,1,102,
5,0,5,0,,,5.30415201187,336,21,6,3292.87330508,5,,,,,,,2017_Jul_17_1109,59.9592295354,DRL_task,1,102,
5,0,5,0,,,12.0122020245,337,22,6,3304.88559103,5,,,,,,,2017_Jul_17_1109,59.9592295354,DRL_task,1,102,
5,0,5,0,,,12.5811569691,338,23,6,3317.48174715,5,,,,,,,2017_Jul_17_1109,59.9592295354,DRL_task,1,102,
5,0,5,0,,,5.8059220314,339,24,6,3323.28759003,5,,,,,,,2017_Jul_17_1109,59.9592295354,DRL_task,1,102,
5,0,5,0,,,5.92115283012,340,25,6,3329.21046519,5,,,,,,,2017_Jul_17_1109,59.9592295354,DRL_task,1,102,
5,0,5,0,,,5.70730209351,341,26,6,3334.91623116,5,,,,,,,2017_Jul_17_1109,59.9592295354,DRL_task,1,102,
5,0,5,0,,,2.85151100159,341,27,6,3337.76893902,5,,,,,,,2017_Jul_17_1109,59.9592295354,DRL_task,1,102,
5,0,5,0,,,7.70778107643,342,28,6,3345.47670317,5,,,,,,,2017_Jul_17_1109,59.9592295354,DRL_task,1,102,
5,0,5,0,,,5.39028978348,343,29,6,3350.86573815,5,,,,,,,2017_Jul_17_1109,59.9592295354,DRL_task,1,102,
5,0,5,0,,,4.60472607613,343,30,6,3355.4706502,5,,,,,,,2017_Jul_17_1109,59.9592295354,DRL_task,1,102,
5,0,5,0,,,8.24191594124,344,31,6,3363.71236205,5,,,,,,,2017_Jul_17_1109,59.9592295354,DRL_task,1,102,
5,0,5,0,,,4.16916918755,344,32,6,3367.88322115,5,,,,,,,2017_Jul_17_1109,59.9592295354,DRL_task,1,102,
5,0,5,0,,,2.45435190201,344,33,6,3370.33521199,5,,,,,,,2017_Jul_17_1109,59.9592295354,DRL_task,1,102,
5,0,5,0,,,4.13597297668,344,34,6,3374.47334218,5,,,,,,,2017_Jul_17_1109,59.9592295354,DRL_task,1,102,
5,0,5,0,,,5.74040699005,345,35,6,3380.21250105,5,,,,,,,2017_Jul_17_1109,59.9592295354,DRL_task,1,102,
5,0,5,0,,,7.22292613983,346,36,6,3387.43648005,5,,,,,,,2017_Jul_17_1109,59.9592295354,DRL_task,1,102,
5,0,5,0,,,9.3442928791,347,37,6,3396.77940202,5,,,,,,,2017_Jul_17_1109,59.9592295354,DRL_task,1,102,
5,0,5,0,,,6.00468802452,348,38,6,3402.78549218,5,,,,,,,2017_Jul_17_1109,59.9592295354,DRL_task,1,102,
5,0,5,0,,,14.4493689537,349,39,6,3417.23382306,5,,,,,,,2017_Jul_17_1109,59.9592295354,DRL_task,1,102,
5,0,5,0,,,15.115445137,350,40,6,3432.34921098,5,,,,,,,2017_Jul_17_1109,59.9592295354,DRL_task,1,102,
5,0,5,0,,,5.25563097,351,41,6,3437.60445499,5,,,,,,,2017_Jul_17_1109,59.9592295354,DRL_task,1,102,
5,0,5,0,,,2.63560986519,351,42,6,3440.24062705,5,,,,,,,2017_Jul_17_1109,59.9592295354,DRL_task,1,102,
5,0,5,0,,,12.462980032,352,43,6,3452.70341706,5,,,,,,,2017_Jul_17_1109,59.9592295354,DRL_task,1,102,
5,0,5,0,,,7.92337012291,353,44,6,3460.62801409,5,,,,,,,2017_Jul_17_1109,59.9592295354,DRL_task,1,102,
5,0,5,0,,,6.02451086044,354,45,6,3466.65081,5,,,,,,,2017_Jul_17_1109,59.9592295354,DRL_task,1,102,
5,0,5,0,,,9.64289307594,355,46,6,3476.2940011,5,,,,,,,2017_Jul_17_1109,59.9592295354,DRL_task,1,102,
5,0,5,0,,,10.8946769238,356,47,6,3487.18853712,5,,,,,,,2017_Jul_17_1109,59.9592295354,DRL_task,1,102,
5,0,5,0,,,8.27358603477,357,48,6,3495.46391702,5,,,,,,,2017_Jul_17_1109,59.9592295354,DRL_task,1,102,
5,0,5,0,,,7.22543501854,358,49,6,3502.68795919,5,,,,,,,2017_Jul_17_1109,59.9592295354,DRL_task,1,102,
5,0,5,0,,,5.43752503395,359,50,6,3508.12680197,5,,,,,,,2017_Jul_17_1109,59.9592295354,DRL_task,1,102,
5,0,5,0,,,9.64462304115,360,51,6,3517.76982212,5,,,,,,,2017_Jul_17_1109,59.9592295354,DRL_task,1,102,
5,0,5,0,,,13.4638078213,361,52,6,3531.233886,5,,,,,,,2017_Jul_17_1109,59.9592295354,DRL_task,1,102,
5,0,5,0,,,5.20531916618,362,53,6,3536.43921399,5,,,,,,,2017_Jul_17_1109,59.9592295354,DRL_task,1,102,
5,0,5,0,,,13.6639540195,363,54,6,3550.10312414,5,,,,,,,2017_Jul_17_1109,59.9592295354,DRL_task,1,102,
5,0,5,0,,,9.2583398819,364,55,6,3559.36274815,5,,,,,,,2017_Jul_17_1109,59.9592295354,DRL_task,1,102,
5,0,5,0,,,15.3167629242,365,56,6,3574.67838812,5,,,,,,,2017_Jul_17_1109,59.9592295354,DRL_task,1,102,
5,0,5,0,,,0.899860143661,365,57,6,3575.57910109,5,,,,,,,2017_Jul_17_1109,59.9592295354,DRL_task,1,102,
5,0,5,0,,,1.33474493027,365,58,6,3576.91388202,5,,,,,,,2017_Jul_17_1109,59.9592295354,DRL_task,1,102,
5,0,5,0,,,30.7481470108,366,59,6,3607.66198897,5,,,,,,,2017_Jul_17_1109,59.9592295354,DRL_task,1,102,
5,0,5,0,,,2.50377893448,366,60,6,3610.16480803,5,,,,,,,2017_Jul_17_1109,59.9592295354,DRL_task,1,102,
5,0,5,0,,,17.4014251232,367,61,6,3627.5660522,5,,,,,,,2017_Jul_17_1109,59.9592295354,DRL_task,1,102,
5,0,5,0,,,5.02154588699,368,62,6,3632.58763003,5,,,,,,,2017_Jul_17_1109,59.9592295354,DRL_task,1,102,
5,0,5,0,,,4.20438313484,368,63,6,3636.79140711,5,,,,,,,2017_Jul_17_1109,59.9592295354,DRL_task,1,102,
5,0,5,0,,,4.15284490585,368,64,6,3640.94639516,5,,,,,,,2017_Jul_17_1109,59.9592295354,DRL_task,1,102,
5,0,5,0,,,4.72151494026,368,65,6,3645.66795707,5,,,,,,,2017_Jul_17_1109,59.9592295354,DRL_task,1,102,
5,0,5,0,,,3.53859806061,368,66,6,3649.20473504,5,,,,,,,2017_Jul_17_1109,59.9592295354,DRL_task,1,102,
5,0,5,0,,,3.20179009438,368,67,6,3652.40797806,5,,,,,,,2017_Jul_17_1109,59.9592295354,DRL_task,1,102,
5,0,5,0,,,3.23793888092,368,68,6,3655.64454508,5,,,,,,,2017_Jul_17_1109,59.9592295354,DRL_task,1,102,
5,0,5,0,,,9.37626600266,369,69,6,3665.02112699,5,,,,,,,2017_Jul_17_1109,59.9592295354,DRL_task,1,102,
5,0,5,0,,,6.17169904709,370,70,6,3671.19413209,5,,,,,,,2017_Jul_17_1109,59.9592295354,DRL_task,1,102,
5,0,5,0,,,1.53622698784,370,71,6,3672.72901297,5,,,,,,,2017_Jul_17_1109,59.9592295354,DRL_task,1,102,
5,0,5,0,,,5.53907299042,371,72,6,3678.26796103,5,,,,,,,2017_Jul_17_1109,59.9592295354,DRL_task,1,102,
5,0,5,0,,,3.71894407272,371,73,6,3681.98807502,5,,,,,,,2017_Jul_17_1109,59.9592295354,DRL_task,1,102,
5,0,5,0,,,6.17463588715,372,74,6,3688.16142607,5,,,,,,,2017_Jul_17_1109,59.9592295354,DRL_task,1,102,
5,0,5,0,,,3.80248713493,372,75,6,3691.96523809,5,,,,,,,2017_Jul_17_1109,59.9592295354,DRL_task,1,102,
5,0,5,0,,,10.3118088245,373,76,6,3702.27596712,5,,,,,,,2017_Jul_17_1109,59.9592295354,DRL_task,1,102,
5,0,5,0,,,5.80460619926,374,77,6,3708.08195305,5,,,,,,,2017_Jul_17_1109,59.9592295354,DRL_task,1,102,
5,0,5,0,,,5.02345395088,375,78,6,3713.10377717,5,,,,,,,2017_Jul_17_1109,59.9592295354,DRL_task,1,102,
5,0,5,0,,,5.38889288902,376,79,6,3718.49214816,5,,,,,,,2017_Jul_17_1109,59.9592295354,DRL_task,1,102,
5,0,5,0,,,5.0037021637,377,80,6,3723.49780917,5,,,,,,,2017_Jul_17_1109,59.9592295354,DRL_task,1,102,
5,0,5,0,,,4.87305378914,377,81,6,3728.36925697,5,,,,,,,2017_Jul_17_1109,59.9592295354,DRL_task,1,102,
5,0,5,0,,,4.87158107758,377,82,6,3733.24111414,5,,,,,,,2017_Jul_17_1109,59.9592295354,DRL_task,1,102,
5,0,5,0,,,4.30419492722,377,83,6,3737.54551005,5,,,,,,,2017_Jul_17_1109,59.9592295354,DRL_task,1,102,
5,0,5,0,,,1.10146403313,377,84,6,3738.64651012,5,,,,,,,2017_Jul_17_1109,59.9592295354,DRL_task,1,102,
5,0,5,0,,,6.23814916611,378,85,6,3744.8864522,5,,,,,,,2017_Jul_17_1109,59.9592295354,DRL_task,1,102,
5,0,5,0,,,5.99093985558,379,86,6,3750.87604618,5,,,,,,,2017_Jul_17_1109,59.9592295354,DRL_task,1,102,
5,0,5,0,,,5.987885952,380,87,6,3756.86542201,5,,,,,,,2017_Jul_17_1109,59.9592295354,DRL_task,1,102,
5,0,5,0,,,2.57097101212,380,88,6,3759.43451905,5,,,,,,,2017_Jul_17_1109,59.9592295354,DRL_task,1,102,
5,0,5,0,,,6.70534014702,381,89,6,3766.14146519,5,,,,,,,2017_Jul_17_1109,59.9592295354,DRL_task,1,102,
5,0,5,0,,,7.22554802895,382,90,6,3773.36572504,5,,,,,,,2017_Jul_17_1109,59.9592295354,DRL_task,1,102,
5,0,5,0,,,3.48718190193,382,91,6,3776.85250998,5,,,,,,,2017_Jul_17_1109,59.9592295354,DRL_task,1,102,
5,0,5,0,,,2.46780109406,382,92,6,3779.32171798,5,,,,,,,2017_Jul_17_1109,59.9592295354,DRL_task,1,102,
5,0,5,0,,,6.84125185013,383,93,6,3786.16221213,5,,,,,,,2017_Jul_17_1109,59.9592295354,DRL_task,1,102,
5,0,5,0,,,,,,,,,"['space', 'space', 'space', 'space', 'space', 'space', 'space', 'space', 'space', 'space', 'space', 'space', 'space', 'space', 'space', 'space', 'space', 'space', 'space', 'space', 'space', 'space', 'space', 'space', 'space', 'space', 'space', 'space', 'space', 'space', 'space', 'space', 'space', 'space', 'space', 'space', 'space', 'space', 'space', 'space', 'space', 'space', 'space', 'space', 'space', 'space', 'space', 'space', 'space', 'space', 'space', 'space', 'space', 'space', 'space', 'space', 'space', 'space', 'space', 'space', 'space', 'space', 'space', 'space', 'space', 'space', 'space', 'space', 'space', 'space', 'space', 'space', 'space', 'space', 'space', 'space', 'space', 'space', 'space', 'space', 'space', 'space', 'space', 'space', 'space', 'space', 'space', 'space', 'space', 'space', 'space', 'space', 'space']","[5.410834074020386, 12.068634986877441, 16.92271900177002, 22.763827085494995, 29.236523151397705, 34.624184131622314, 38.478004932403564, 44.83617115020752, 50.341225147247314, 54.529057025909424, 57.41414499282837, 62.40246605873108, 65.33982610702515, 72.39723610877991, 77.78636908531189, 81.30497598648071, 84.90884709358215, 91.18313407897949, 94.46941113471985, 99.72508311271667, 105.02923512458801, 117.04143714904785, 129.6225941181183, 135.42851614952087, 141.34966897964478, 147.05697107315063, 149.90848207473755, 157.61626315116882, 163.0065529346466, 167.6112790107727, 175.8531949520111, 180.02236413955688, 182.47671604156494, 186.6126890182495, 192.35309600830078, 199.57602214813232, 208.92031502723694, 214.9250030517578, 229.37437200546265, 244.48981714248657, 249.7454481124878, 252.3810579776764, 264.84403800964355, 272.7674081325531, 278.7919189929962, 288.4348120689392, 299.32948899269104, 307.6030750274658, 314.82851004600525, 320.26603507995605, 329.910658121109, 343.3744659423828, 348.5797851085663, 362.2437391281128, 371.50207901000977, 386.8188419342041, 387.7187020778656, 389.05344700813293, 419.80159401893616, 422.3053729534149, 439.70679807662964, 444.72834396362305, 448.93272709846497, 453.08557200431824, 457.8070869445801, 461.345685005188, 464.5474750995636, 467.785413980484, 477.16167998313904, 483.33337903022766, 484.8696060180664, 490.4086790084839, 494.1276230812073, 500.30225896835327, 504.10474610328674, 514.4165549278259, 520.2211611270905, 525.2446150779724, 530.6335079669952, 535.6372101306915, 540.5102639198303, 545.381844997406, 549.6860399246216, 550.7875039577484, 557.0256531238556, 563.0165929794312, 569.004478931427, 571.5754499435425, 578.2807900905609, 585.5063381195068, 588.9935200214386, 591.4613211154938, 598.302572965622]",space,22.5248770714,,,2017_Jul_17_1109,59.9592295354,DRL_task,1,102,
,,,,,,,,,,,,,,,,space,2.65430116653,2017_Jul_17_1109,59.9592295354,DRL_task,1,102,
