experiment.thisRepN,experiment.thisTrialN,experiment.thisN,experiment.thisIndex,instructions_key.keys,instructions_key.rt,rt,score,response_number,block_number,time,interval,response.keys,response.rt,break_key.keys,break_key.rt,closing_key.keys,closing_key.rt,date,frameRate,expName,session,participant,
,,,,space,10.9985489845,,,,,,,,,,,,,2017_Jul_18_1058,59.9459467958,DRL_task,1,103,
0,0,0,0,,,3.57451200485,0,1,1,16.0533480644,5,,,,,,,2017_Jul_18_1058,59.9459467958,DRL_task,1,103,
0,0,0,0,,,5.58859014511,1,2,1,21.6426100731,5,,,,,,,2017_Jul_18_1058,59.9459467958,DRL_task,1,103,
0,0,0,0,,,6.04063487053,2,3,1,27.6830689907,5,,,,,,,2017_Jul_18_1058,59.9459467958,DRL_task,1,103,
0,0,0,0,,,4.12135195732,2,4,1,31.8040859699,5,,,,,,,2017_Jul_18_1058,59.9459467958,DRL_task,1,103,
0,0,0,0,,,5.83908295631,3,5,1,37.6439640522,5,,,,,,,2017_Jul_18_1058,59.9459467958,DRL_task,1,103,
0,0,0,0,,,4.20344018936,3,6,1,41.8482451439,5,,,,,,,2017_Jul_18_1058,59.9459467958,DRL_task,1,103,
0,0,0,0,,,4.82305192947,3,7,1,46.6703801155,5,,,,,,,2017_Jul_18_1058,59.9459467958,DRL_task,1,103,
0,0,0,0,,,6.94110703468,4,8,1,53.6115620136,5,,,,,,,2017_Jul_18_1058,59.9459467958,DRL_task,1,103,
0,0,0,0,,,3.83765292168,4,9,1,57.4493191242,5,,,,,,,2017_Jul_18_1058,59.9459467958,DRL_task,1,103,
0,0,0,0,,,4.83890199661,4,10,1,62.2879049778,5,,,,,,,2017_Jul_18_1058,59.9459467958,DRL_task,1,103,
0,0,0,0,,,6.10675501823,5,11,1,68.3945610523,5,,,,,,,2017_Jul_18_1058,59.9459467958,DRL_task,1,103,
0,0,0,0,,,5.339220047,6,12,1,73.733798027,5,,,,,,,2017_Jul_18_1058,59.9459467958,DRL_task,1,103,
0,0,0,0,,,4.08781695366,6,13,1,77.8215990067,5,,,,,,,2017_Jul_18_1058,59.9459467958,DRL_task,1,103,
0,0,0,0,,,5.37277412415,7,14,1,83.1940920353,5,,,,,,,2017_Jul_18_1058,59.9459467958,DRL_task,1,103,
0,0,0,0,,,4.90525484085,7,15,1,88.0994820595,5,,,,,,,2017_Jul_18_1058,59.9459467958,DRL_task,1,103,
0,0,0,0,,,4.95547795296,7,16,1,93.0551371574,5,,,,,,,2017_Jul_18_1058,59.9459467958,DRL_task,1,103,
0,0,0,0,,,6.19033622742,8,17,1,99.24508214,5,,,,,,,2017_Jul_18_1058,59.9459467958,DRL_task,1,103,
0,0,0,0,,,5.62268686295,9,18,1,104.868162155,5,,,,,,,2017_Jul_18_1058,59.9459467958,DRL_task,1,103,
0,0,0,0,,,5.15580296516,10,19,1,110.023607969,5,,,,,,,2017_Jul_18_1058,59.9459467958,DRL_task,1,103,
0,0,0,0,,,5.00531005859,11,20,1,115.029273987,5,,,,,,,2017_Jul_18_1058,59.9459467958,DRL_task,1,103,
0,0,0,0,,,4.73828411102,11,21,1,119.767598152,5,,,,,,,2017_Jul_18_1058,59.9459467958,DRL_task,1,103,
0,0,0,0,,,5.95680499077,12,22,1,125.72426796,5,,,,,,,2017_Jul_18_1058,59.9459467958,DRL_task,1,103,
0,0,0,0,,,6.20520401001,13,23,1,131.931055069,5,,,,,,,2017_Jul_18_1058,59.9459467958,DRL_task,1,103,
0,0,0,0,,,4.28816390038,13,24,1,136.219051123,5,,,,,,,2017_Jul_18_1058,59.9459467958,DRL_task,1,103,
0,0,0,0,,,5.65749192238,14,25,1,141.875144005,5,,,,,,,2017_Jul_18_1058,59.9459467958,DRL_task,1,103,
0,0,0,0,,,7.32320594788,15,26,1,149.199661016,5,,,,,,,2017_Jul_18_1058,59.9459467958,DRL_task,1,103,
0,0,0,0,,,6.5584461689,16,27,1,155.75706315,5,,,,,,,2017_Jul_18_1058,59.9459467958,DRL_task,1,103,
0,0,0,0,,,4.95427203178,16,28,1,160.712236166,5,,,,,,,2017_Jul_18_1058,59.9459467958,DRL_task,1,103,
0,0,0,0,,,5.27241301537,17,29,1,165.984699965,5,,,,,,,2017_Jul_18_1058,59.9459467958,DRL_task,1,103,
0,0,0,0,,,8.79293680191,18,30,1,174.777680159,5,,,,,,,2017_Jul_18_1058,59.9459467958,DRL_task,1,103,
0,0,0,0,,,6.54193520546,19,31,1,181.31806612,5,,,,,,,2017_Jul_18_1058,59.9459467958,DRL_task,1,103,
0,0,0,0,,,6.5238058567,20,32,1,187.842041016,5,,,,,,,2017_Jul_18_1058,59.9459467958,DRL_task,1,103,
0,0,0,0,,,5.23852396011,21,33,1,193.081099033,5,,,,,,,2017_Jul_18_1058,59.9459467958,DRL_task,1,103,
0,0,0,0,,,4.98912405968,21,34,1,198.069863081,5,,,,,,,2017_Jul_18_1058,59.9459467958,DRL_task,1,103,
0,0,0,0,,,5.43930602074,22,35,1,203.509032965,5,,,,,,,2017_Jul_18_1058,59.9459467958,DRL_task,1,103,
0,0,0,0,,,4.75367498398,22,36,1,208.26433301,5,,,,,,,2017_Jul_18_1058,59.9459467958,DRL_task,1,103,
0,0,0,0,,,4.94021892548,22,37,1,213.202898026,5,,,,,,,2017_Jul_18_1058,59.9459467958,DRL_task,1,103,
0,0,0,0,,,6.67327809334,23,38,1,219.876672983,5,,,,,,,2017_Jul_18_1058,59.9459467958,DRL_task,1,103,
0,0,0,0,,,6.6580080986,24,39,1,226.534127951,5,,,,,,,2017_Jul_18_1058,59.9459467958,DRL_task,1,103,
0,0,0,0,,,5.18898582458,25,40,1,231.723150969,5,,,,,,,2017_Jul_18_1058,59.9459467958,DRL_task,1,103,
0,0,0,0,,,5.1055431366,26,41,1,236.82870698,5,,,,,,,2017_Jul_18_1058,59.9459467958,DRL_task,1,103,
0,0,0,0,,,4.92196989059,26,42,1,241.750993967,5,,,,,,,2017_Jul_18_1058,59.9459467958,DRL_task,1,103,
0,0,0,0,,,4.98885202408,26,43,1,246.739665031,5,,,,,,,2017_Jul_18_1058,59.9459467958,DRL_task,1,103,
0,0,0,0,,,5.9381070137,27,44,1,252.679495096,5,,,,,,,2017_Jul_18_1058,59.9459467958,DRL_task,1,103,
0,0,0,0,,,6.24222207069,28,45,1,258.919528008,5,,,,,,,2017_Jul_18_1058,59.9459467958,DRL_task,1,103,
0,0,0,0,,,5.0055038929,29,46,1,263.924967051,5,,,,,,,2017_Jul_18_1058,59.9459467958,DRL_task,1,103,
0,0,0,0,,,5.63890314102,30,47,1,269.564720154,5,,,,,,,2017_Jul_18_1058,59.9459467958,DRL_task,1,103,
0,0,0,0,,,3.87075185776,30,48,1,273.435554028,5,,,,,,,2017_Jul_18_1058,59.9459467958,DRL_task,1,103,
0,0,0,0,,,1.18487715721,30,49,1,274.619647026,5,,,,,,,2017_Jul_18_1058,59.9459467958,DRL_task,1,103,
0,0,0,0,,,1.10130476952,30,50,1,275.721353054,5,,,,,,,2017_Jul_18_1058,59.9459467958,DRL_task,1,103,
0,0,0,0,,,0.166519165039,30,51,1,275.888216972,5,,,,,,,2017_Jul_18_1058,59.9459467958,DRL_task,1,103,
0,0,0,0,,,0.166975021362,30,52,1,276.055094957,5,,,,,,,2017_Jul_18_1058,59.9459467958,DRL_task,1,103,
0,0,0,0,,,0.150751829147,30,53,1,276.20511198,5,,,,,,,2017_Jul_18_1058,59.9459467958,DRL_task,1,103,
0,0,0,0,,,0.166298151016,30,54,1,276.371930122,5,,,,,,,2017_Jul_18_1058,59.9459467958,DRL_task,1,103,
0,0,0,0,,,0.166765928268,30,55,1,276.538918972,5,,,,,,,2017_Jul_18_1058,59.9459467958,DRL_task,1,103,
0,0,0,0,,,7.69052290916,31,56,1,284.230657101,5,,,,,,,2017_Jul_18_1058,59.9459467958,DRL_task,1,103,
0,0,0,0,,,6.77559018135,32,57,1,291.003991127,5,,,,,,,2017_Jul_18_1058,59.9459467958,DRL_task,1,103,
0,0,0,0,,,6.40715694427,33,58,1,297.411571026,5,,,,,,,2017_Jul_18_1058,59.9459467958,DRL_task,1,103,
0,0,0,0,,,0.350208044052,33,59,1,297.762164116,5,,,,,,,2017_Jul_18_1058,59.9459467958,DRL_task,1,103,
0,0,0,0,,,12.8308310509,34,60,1,310.592654943,5,,,,,,,2017_Jul_18_1058,59.9459467958,DRL_task,1,103,
0,0,0,0,,,7.50785493851,35,61,1,318.100866079,5,,,,,,,2017_Jul_18_1058,59.9459467958,DRL_task,1,103,
0,0,0,0,,,6.10555696487,36,62,1,324.207539082,5,,,,,,,2017_Jul_18_1058,59.9459467958,DRL_task,1,103,
0,0,0,0,,,10.8459010124,37,63,1,335.052883148,5,,,,,,,2017_Jul_18_1058,59.9459467958,DRL_task,1,103,
0,0,0,0,,,5.37312889099,38,64,1,340.425470114,5,,,,,,,2017_Jul_18_1058,59.9459467958,DRL_task,1,103,
0,0,0,0,,,5.15526509285,39,65,1,345.58101511,5,,,,,,,2017_Jul_18_1058,59.9459467958,DRL_task,1,103,
0,0,0,0,,,4.13789796829,39,66,1,349.71894598,5,,,,,,,2017_Jul_18_1058,59.9459467958,DRL_task,1,103,
0,0,0,0,,,4.6719379425,39,67,1,354.390543938,5,,,,,,,2017_Jul_18_1058,59.9459467958,DRL_task,1,103,
0,0,0,0,,,5.28924417496,40,68,1,359.679794073,5,,,,,,,2017_Jul_18_1058,59.9459467958,DRL_task,1,103,
0,0,0,0,,,5.73957180977,41,69,1,365.419579029,5,,,,,,,2017_Jul_18_1058,59.9459467958,DRL_task,1,103,
0,0,0,0,,,4.95530414581,41,70,1,370.37469697,5,,,,,,,2017_Jul_18_1058,59.9459467958,DRL_task,1,103,
0,0,0,0,,,9.51040387154,42,71,1,379.885069132,5,,,,,,,2017_Jul_18_1058,59.9459467958,DRL_task,1,103,
0,0,0,0,,,11.596050024,43,72,1,391.481258154,5,,,,,,,2017_Jul_18_1058,59.9459467958,DRL_task,1,103,
0,0,0,0,,,7.35836315155,44,73,1,398.839260101,5,,,,,,,2017_Jul_18_1058,59.9459467958,DRL_task,1,103,
0,0,0,0,,,8.29206800461,45,74,1,407.131545067,5,,,,,,,2017_Jul_18_1058,59.9459467958,DRL_task,1,103,
0,0,0,0,,,8.24244093895,46,75,1,415.374051094,5,,,,,,,2017_Jul_18_1058,59.9459467958,DRL_task,1,103,
0,0,0,0,,,14.5812799931,47,76,1,429.956675053,5,,,,,,,2017_Jul_18_1058,59.9459467958,DRL_task,1,103,
0,0,0,0,,,6.62500905991,48,77,1,436.580619097,5,,,,,,,2017_Jul_18_1058,59.9459467958,DRL_task,1,103,
0,0,0,0,,,4.02140784264,48,78,1,440.601808071,5,,,,,,,2017_Jul_18_1058,59.9459467958,DRL_task,1,103,
0,0,0,0,,,4.32159614563,48,79,1,444.922889948,5,,,,,,,2017_Jul_18_1058,59.9459467958,DRL_task,1,103,
0,0,0,0,,,4.63697290421,48,80,1,449.561316967,5,,,,,,,2017_Jul_18_1058,59.9459467958,DRL_task,1,103,
0,0,0,0,,,5.0052781105,49,81,1,454.566971064,5,,,,,,,2017_Jul_18_1058,59.9459467958,DRL_task,1,103,
0,0,0,0,,,6.47493600845,50,82,1,461.05718708,5,,,,,,,2017_Jul_18_1058,59.9459467958,DRL_task,1,103,
0,0,0,0,,,6.49082899094,51,83,1,467.531002045,5,,,,,,,2017_Jul_18_1058,59.9459467958,DRL_task,1,103,
0,0,0,0,,,3.93714499474,51,84,1,471.468791008,5,,,,,,,2017_Jul_18_1058,59.9459467958,DRL_task,1,103,
0,0,0,0,,,2.10246992111,51,85,1,473.570935965,5,,,,,,,2017_Jul_18_1058,59.9459467958,DRL_task,1,103,
0,0,0,0,,,5.50476002693,52,86,1,479.077105045,5,,,,,,,2017_Jul_18_1058,59.9459467958,DRL_task,1,103,
0,0,0,0,,,5.27372097969,53,87,1,484.34940815,5,,,,,,,2017_Jul_18_1058,59.9459467958,DRL_task,1,103,
0,0,0,0,,,5.0375418663,54,88,1,489.388393164,5,,,,,,,2017_Jul_18_1058,59.9459467958,DRL_task,1,103,
0,0,0,0,,,5.39052319527,55,89,1,494.777642012,5,,,,,,,2017_Jul_18_1058,59.9459467958,DRL_task,1,103,
0,0,0,0,,,4.0032658577,55,90,1,498.781836033,5,,,,,,,2017_Jul_18_1058,59.9459467958,DRL_task,1,103,
0,0,0,0,,,4.25568294525,55,91,1,503.053212166,5,,,,,,,2017_Jul_18_1058,59.9459467958,DRL_task,1,103,
0,0,0,0,,,5.32129907608,56,92,1,508.359138012,5,,,,,,,2017_Jul_18_1058,59.9459467958,DRL_task,1,103,
0,0,0,0,,,4.17257094383,56,93,1,512.530399084,5,,,,,,,2017_Jul_18_1058,59.9459467958,DRL_task,1,103,
0,0,0,0,,,11.7128350735,57,94,1,524.243241072,5,,,,,,,2017_Jul_18_1058,59.9459467958,DRL_task,1,103,
0,0,0,0,,,3.82118391991,57,95,1,528.063955069,5,,,,,,,2017_Jul_18_1058,59.9459467958,DRL_task,1,103,
0,0,0,0,,,5.50585913658,58,96,1,533.569955111,5,,,,,,,2017_Jul_18_1058,59.9459467958,DRL_task,1,103,
0,0,0,0,,,6.68930792809,59,97,1,540.26061511,5,,,,,,,2017_Jul_18_1058,59.9459467958,DRL_task,1,103,
0,0,0,0,,,12.815196991,60,98,1,553.07480216,5,,,,,,,2017_Jul_18_1058,59.9459467958,DRL_task,1,103,
0,0,0,0,,,7.70876097679,61,99,1,560.783122063,5,,,,,,,2017_Jul_18_1058,59.9459467958,DRL_task,1,103,
0,0,0,0,,,6.57348895073,62,100,1,567.356966019,5,,,,,,,2017_Jul_18_1058,59.9459467958,DRL_task,1,103,
0,0,0,0,,,5.68990421295,63,101,1,573.046522141,5,,,,,,,2017_Jul_18_1058,59.9459467958,DRL_task,1,103,
0,0,0,0,,,9.41032385826,64,102,1,582.456794977,5,,,,,,,2017_Jul_18_1058,59.9459467958,DRL_task,1,103,
0,0,0,0,,,6.68907499313,65,103,1,589.147550106,5,,,,,,,2017_Jul_18_1058,59.9459467958,DRL_task,1,103,
0,0,0,0,,,7.0761590004,66,104,1,596.221754074,5,,,,,,,2017_Jul_18_1058,59.9459467958,DRL_task,1,103,
0,0,0,0,,,8.27529001236,67,105,1,604.497857094,5,,,,,,,2017_Jul_18_1058,59.9459467958,DRL_task,1,103,
0,0,0,0,,,5.62291502953,68,106,1,610.120502949,5,,,,,,,2017_Jul_18_1058,59.9459467958,DRL_task,1,103,
0,0,0,0,,,,,,,,,"['space', 'space', 'space', 'space', 'space', 'space', 'space', 'space', 'space', 'space', 'space', 'space', 'space', 'space', 'space', 'space', 'space', 'space', 'space', 'space', 'space', 'space', 'space', 'space', 'space', 'space', 'space', 'space', 'space', 'space', 'space', 'space', 'space', 'space', 'space', 'space', 'space', 'space', 'space', 'space', 'space', 'space', 'space', 'space', 'space', 'space', 'space', 'space', 'space', 'space', 'space', 'space', 'space', 'space', 'space', 'space', 'space', 'space', 'space', 'space', 'space', 'space', 'space', 'space', 'space', 'space', 'space', 'space', 'space', 'space', 'space', 'space', 'space', 'space', 'space', 'space', 'space', 'space', 'space', 'space', 'space', 'space', 'space', 'space', 'space', 'space', 'space', 'space', 'space', 'space', 'space', 'space', 'space', 'space', 'space', 'space', 'space', 'space', 'space', 'space', 'space', 'space', 'space', 'space', 'space', 'space']","[3.574512004852295, 9.163102149963379, 15.203737020492554, 19.32508897781372, 25.164171934127808, 29.36761212348938, 34.19066405296326, 41.131771087646484, 44.96942400932312, 49.80832600593567, 55.91508102416992, 61.25430107116699, 65.34211802482605, 70.71489214897156, 75.62014698982239, 80.57562494277954, 86.76596117019653, 92.38864803314209, 97.54445099830627, 102.54976105690002, 107.28804516792297, 113.2448501586914, 119.45005416870117, 123.73821806907654, 129.39570999145508, 136.71891593933105, 143.2773621082306, 148.23163414001465, 153.50404715538025, 162.29698395729065, 168.83891916275024, 175.36272501945496, 180.60124897956848, 185.5903730392456, 191.0296790599823, 195.78335404396057, 200.72357296943665, 207.39685106277466, 214.05485916137695, 219.2438449859619, 224.3493881225586, 229.27135801315308, 234.26021003723145, 240.19831705093384, 246.4405391216278, 251.44604301452637, 257.0849461555481, 260.95569801330566, 262.14057517051697, 263.24187994003296, 263.408399105072, 263.5753741264343, 263.72612595558167, 263.8924241065979, 264.05919003486633, 271.74971294403076, 278.52530312538147, 284.9324600696564, 285.2826681137085, 298.1134991645813, 305.6213541030884, 311.72691106796265, 322.5728120803833, 327.9459409713745, 333.10120606422424, 337.2391040325165, 341.91104197502136, 347.20028614997864, 352.9398579597473, 357.8951621055603, 367.40556597709656, 379.00161600112915, 386.35997915267944, 394.6520471572876, 402.8944880962372, 417.47576808929443, 424.10077714920044, 428.12218499183655, 432.44378113746643, 437.08075404167175, 442.0860321521759, 448.5609681606293, 455.05179715156555, 458.98894214630127, 461.09141206741333, 466.5961720943451, 471.86989307403564, 476.90743494033813, 482.29795813560486, 486.3012239933014, 490.55690693855286, 495.8782060146332, 500.0507769584656, 511.76361203193665, 515.5847959518433, 521.0906550884247, 527.77996301651, 540.5951600074768, 548.3039209842682, 554.8774099349976, 560.5673141479492, 569.9776380062103, 576.6667129993439, 583.7428719997406, 592.0181620121002, 597.641077041626]",space,6.09142804146,,,2017_Jul_18_1058,59.9459467958,DRL_task,1,103,
1,0,1,0,,,2.81135416031,68,1,2,622.651024103,5,,,,,,,2017_Jul_18_1058,59.9459467958,DRL_task,1,103,
1,0,1,0,,,2.45310902596,68,2,2,625.10375905,5,,,,,,,2017_Jul_18_1058,59.9459467958,DRL_task,1,103,
1,0,1,0,,,1.98528695107,68,3,2,627.089229107,5,,,,,,,2017_Jul_18_1058,59.9459467958,DRL_task,1,103,
1,0,1,0,,,2.33463287354,68,4,2,629.424931049,5,,,,,,,2017_Jul_18_1058,59.9459467958,DRL_task,1,103,
1,0,1,0,,,2.30384922028,68,5,2,631.727641106,5,,,,,,,2017_Jul_18_1058,59.9459467958,DRL_task,1,103,
1,0,1,0,,,2.21793484688,68,6,2,633.946510077,5,,,,,,,2017_Jul_18_1058,59.9459467958,DRL_task,1,103,
1,0,1,0,,,2.67072296143,68,7,2,636.616277933,5,,,,,,,2017_Jul_18_1058,59.9459467958,DRL_task,1,103,
1,0,1,0,,,2.86831617355,68,8,2,639.486171007,5,,,,,,,2017_Jul_18_1058,59.9459467958,DRL_task,1,103,
1,0,1,0,,,3.55570292473,68,9,2,643.039896011,5,,,,,,,2017_Jul_18_1058,59.9459467958,DRL_task,1,103,
1,0,1,0,,,4.1043279171,68,10,2,647.144520998,5,,,,,,,2017_Jul_18_1058,59.9459467958,DRL_task,1,103,
1,0,1,0,,,4.02106308937,68,11,2,651.165575027,5,,,,,,,2017_Jul_18_1058,59.9459467958,DRL_task,1,103,
1,0,1,0,,,4.80507397652,68,12,2,655.970714092,5,,,,,,,2017_Jul_18_1058,59.9459467958,DRL_task,1,103,
1,0,1,0,,,5.68956494331,69,13,2,661.660273075,5,,,,,,,2017_Jul_18_1058,59.9459467958,DRL_task,1,103,
1,0,1,0,,,7.52381706238,70,14,2,669.185162067,5,,,,,,,2017_Jul_18_1058,59.9459467958,DRL_task,1,103,
1,0,1,0,,,4.12210202217,70,15,2,673.306506157,5,,,,,,,2017_Jul_18_1058,59.9459467958,DRL_task,1,103,
1,0,1,0,,,3.60421395302,70,16,2,676.910314083,5,,,,,,,2017_Jul_18_1058,59.9459467958,DRL_task,1,103,
1,0,1,0,,,4.3547539711,70,17,2,681.265267134,5,,,,,,,2017_Jul_18_1058,59.9459467958,DRL_task,1,103,
1,0,1,0,,,5.03902697563,71,18,2,686.303967953,5,,,,,,,2017_Jul_18_1058,59.9459467958,DRL_task,1,103,
1,0,1,0,,,6.84080696106,72,19,2,693.14477396,5,,,,,,,2017_Jul_18_1058,59.9459467958,DRL_task,1,103,
1,0,1,0,,,4.7214641571,72,20,2,697.866786003,5,,,,,,,2017_Jul_18_1058,59.9459467958,DRL_task,1,103,
1,0,1,0,,,4.42027688026,72,21,2,702.288323164,5,,,,,,,2017_Jul_18_1058,59.9459467958,DRL_task,1,103,
1,0,1,0,,,4.32171201706,72,22,2,706.609542131,5,,,,,,,2017_Jul_18_1058,59.9459467958,DRL_task,1,103,
1,0,1,0,,,6.85844612122,73,23,2,713.46720314,5,,,,,,,2017_Jul_18_1058,59.9459467958,DRL_task,1,103,
1,0,1,0,,,6.4726319313,74,24,2,719.941002131,5,,,,,,,2017_Jul_18_1058,59.9459467958,DRL_task,1,103,
1,0,1,0,,,6.77525496483,75,25,2,726.715089083,5,,,,,,,2017_Jul_18_1058,59.9459467958,DRL_task,1,103,
1,0,1,0,,,7.92439103127,76,26,2,734.640429974,5,,,,,,,2017_Jul_18_1058,59.9459467958,DRL_task,1,103,
1,0,1,0,,,5.0238699913,77,27,2,739.66247797,5,,,,,,,2017_Jul_18_1058,59.9459467958,DRL_task,1,103,
1,0,1,0,,,4.55461597443,77,28,2,744.217429161,5,,,,,,,2017_Jul_18_1058,59.9459467958,DRL_task,1,103,
1,0,1,0,,,3.33555102348,77,29,2,747.55456996,5,,,,,,,2017_Jul_18_1058,59.9459467958,DRL_task,1,103,
1,0,1,0,,,4.75680494308,77,30,2,752.309296131,5,,,,,,,2017_Jul_18_1058,59.9459467958,DRL_task,1,103,
1,0,1,0,,,5.55582499504,78,31,2,757.899276018,5,,,,,,,2017_Jul_18_1058,59.9459467958,DRL_task,1,103,
1,0,1,0,,,4.25345396996,78,32,2,762.120378017,5,,,,,,,2017_Jul_18_1058,59.9459467958,DRL_task,1,103,
1,0,1,0,,,4.72170615196,78,33,2,766.842406034,5,,,,,,,2017_Jul_18_1058,59.9459467958,DRL_task,1,103,
1,0,1,0,,,6.47357988358,79,34,2,773.316190958,5,,,,,,,2017_Jul_18_1058,59.9459467958,DRL_task,1,103,
1,0,1,0,,,4.55656003952,79,35,2,777.870993137,5,,,,,,,2017_Jul_18_1058,59.9459467958,DRL_task,1,103,
1,0,1,0,,,5.07225298882,80,36,2,782.943218946,5,,,,,,,2017_Jul_18_1058,59.9459467958,DRL_task,1,103,
1,0,1,0,,,5.30458593369,81,37,2,788.249037027,5,,,,,,,2017_Jul_18_1058,59.9459467958,DRL_task,1,103,
1,0,1,0,,,3.80413413048,81,38,2,792.05322504,5,,,,,,,2017_Jul_18_1058,59.9459467958,DRL_task,1,103,
1,0,1,0,,,4.10569095612,81,39,2,796.174626112,5,,,,,,,2017_Jul_18_1058,59.9459467958,DRL_task,1,103,
1,0,1,0,,,5.77182912827,82,40,2,801.930736065,5,,,,,,,2017_Jul_18_1058,59.9459467958,DRL_task,1,103,
1,0,1,0,,,3.32028889656,82,41,2,805.251026154,5,,,,,,,2017_Jul_18_1058,59.9459467958,DRL_task,1,103,
1,0,1,0,,,4.05579996109,82,42,2,809.305561066,5,,,,,,,2017_Jul_18_1058,59.9459467958,DRL_task,1,103,
1,0,1,0,,,5.37092113495,83,43,2,814.67839694,5,,,,,,,2017_Jul_18_1058,59.9459467958,DRL_task,1,103,
1,0,1,0,,,3.87255001068,83,44,2,818.548890114,5,,,,,,,2017_Jul_18_1058,59.9459467958,DRL_task,1,103,
1,0,1,0,,,5.12068080902,84,45,2,823.671401024,5,,,,,,,2017_Jul_18_1058,59.9459467958,DRL_task,1,103,
1,0,1,0,,,8.5613951683,85,46,2,832.230601072,5,,,,,,,2017_Jul_18_1058,59.9459467958,DRL_task,1,103,
1,0,1,0,,,4.43789887428,85,47,2,836.668849945,5,,,,,,,2017_Jul_18_1058,59.9459467958,DRL_task,1,103,
1,0,1,0,,,9.89277505875,86,48,2,846.563071012,5,,,,,,,2017_Jul_18_1058,59.9459467958,DRL_task,1,103,
1,0,1,0,,,5.3070909977,87,49,2,851.869172096,5,,,,,,,2017_Jul_18_1058,59.9459467958,DRL_task,1,103,
1,0,1,0,,,4.22104787827,87,50,2,856.090135098,5,,,,,,,2017_Jul_18_1058,59.9459467958,DRL_task,1,103,
1,0,1,0,,,4.47056698799,87,51,2,860.561771154,5,,,,,,,2017_Jul_18_1058,59.9459467958,DRL_task,1,103,
1,0,1,0,,,5.70754122734,88,52,2,866.268105984,5,,,,,,,2017_Jul_18_1058,59.9459467958,DRL_task,1,103,
1,0,1,0,,,9.34355187416,89,53,2,875.611731052,5,,,,,,,2017_Jul_18_1058,59.9459467958,DRL_task,1,103,
1,0,1,0,,,7.4579501152,90,54,2,883.069700956,5,,,,,,,2017_Jul_18_1058,59.9459467958,DRL_task,1,103,
1,0,1,0,,,4.33679389954,90,55,2,887.441215038,5,,,,,,,2017_Jul_18_1058,59.9459467958,DRL_task,1,103,
1,0,1,0,,,8.27603197098,91,56,2,895.683582067,5,,,,,,,2017_Jul_18_1058,59.9459467958,DRL_task,1,103,
1,0,1,0,,,5.78952097893,92,57,2,901.473405123,5,,,,,,,2017_Jul_18_1058,59.9459467958,DRL_task,1,103,
1,0,1,0,,,6.12350511551,93,58,2,907.596635103,5,,,,,,,2017_Jul_18_1058,59.9459467958,DRL_task,1,103,
1,0,1,0,,,1.45254898071,93,59,2,909.048406124,5,,,,,,,2017_Jul_18_1058,59.9459467958,DRL_task,1,103,
1,0,1,0,,,0.617496967316,93,60,2,909.665560007,5,,,,,,,2017_Jul_18_1058,59.9459467958,DRL_task,1,103,
1,0,1,0,,,3.10234189034,93,61,2,912.768968105,5,,,,,,,2017_Jul_18_1058,59.9459467958,DRL_task,1,103,
1,0,1,0,,,1.13456821442,93,62,2,913.903548956,5,,,,,,,2017_Jul_18_1058,59.9459467958,DRL_task,1,103,
1,0,1,0,,,0.66862487793,93,63,2,914.570956945,5,,,,,,,2017_Jul_18_1058,59.9459467958,DRL_task,1,103,
1,0,1,0,,,3.65262198448,93,64,2,918.225111961,5,,,,,,,2017_Jul_18_1058,59.9459467958,DRL_task,1,103,
1,0,1,0,,,0.617331027985,93,65,2,918.842388153,5,,,,,,,2017_Jul_18_1058,59.9459467958,DRL_task,1,103,
1,0,1,0,,,0.750830888748,93,66,2,919.593291044,5,,,,,,,2017_Jul_18_1058,59.9459467958,DRL_task,1,103,
1,0,1,0,,,0.501764059067,93,67,2,920.093868017,5,,,,,,,2017_Jul_18_1058,59.9459467958,DRL_task,1,103,
1,0,1,0,,,0.298949956894,93,68,2,920.394235134,5,,,,,,,2017_Jul_18_1058,59.9459467958,DRL_task,1,103,
1,0,1,0,,,5.58969402313,94,69,2,926.017035961,5,,,,,,,2017_Jul_18_1058,59.9459467958,DRL_task,1,103,
1,0,1,0,,,10.6462180614,95,70,2,936.628678083,5,,,,,,,2017_Jul_18_1058,59.9459467958,DRL_task,1,103,
1,0,1,0,,,7.64185595512,96,71,2,944.270225048,5,,,,,,,2017_Jul_18_1058,59.9459467958,DRL_task,1,103,
1,0,1,0,,,7.89060711861,97,72,2,952.162416935,5,,,,,,,2017_Jul_18_1058,59.9459467958,DRL_task,1,103,
1,0,1,0,,,5.23890900612,98,73,2,957.401459932,5,,,,,,,2017_Jul_18_1058,59.9459467958,DRL_task,1,103,
1,0,1,0,,,2.73635196686,98,74,2,960.137824059,5,,,,,,,2017_Jul_18_1058,59.9459467958,DRL_task,1,103,
1,0,1,0,,,3.22190403938,98,75,2,963.357815981,5,,,,,,,2017_Jul_18_1058,59.9459467958,DRL_task,1,103,
1,0,1,0,,,3.53578591347,98,76,2,966.895219088,5,,,,,,,2017_Jul_18_1058,59.9459467958,DRL_task,1,103,
1,0,1,0,,,6.17477488518,99,77,2,973.068683147,5,,,,,,,2017_Jul_18_1058,59.9459467958,DRL_task,1,103,
1,0,1,0,,,4.48840522766,99,78,2,977.55677104,5,,,,,,,2017_Jul_18_1058,59.9459467958,DRL_task,1,103,
1,0,1,0,,,7.40780091286,100,79,2,984.964897156,5,,,,,,,2017_Jul_18_1058,59.9459467958,DRL_task,1,103,
1,0,1,0,,,4.4216799736,100,80,2,989.386561155,5,,,,,,,2017_Jul_18_1058,59.9459467958,DRL_task,1,103,
1,0,1,0,,,6.74064397812,101,81,2,996.127321005,5,,,,,,,2017_Jul_18_1058,59.9459467958,DRL_task,1,103,
1,0,1,0,,,8.14235591888,102,82,2,1004.26959109,5,,,,,,,2017_Jul_18_1058,59.9459467958,DRL_task,1,103,
1,0,1,0,,,6.00660610199,103,83,2,1010.27623105,5,,,,,,,2017_Jul_18_1058,59.9459467958,DRL_task,1,103,
1,0,1,0,,,10.0929660797,104,84,2,1020.37045908,5,,,,,,,2017_Jul_18_1058,59.9459467958,DRL_task,1,103,
1,0,1,0,,,11.1637170315,105,85,2,1031.53286815,5,,,,,,,2017_Jul_18_1058,59.9459467958,DRL_task,1,103,
1,0,1,0,,,3.02017188072,105,86,2,1034.55262613,5,,,,,,,2017_Jul_18_1058,59.9459467958,DRL_task,1,103,
1,0,1,0,,,1.33318090439,105,87,2,1035.88745904,5,,,,,,,2017_Jul_18_1058,59.9459467958,DRL_task,1,103,
1,0,1,0,,,2.92091107368,105,88,2,1038.80750394,5,,,,,,,2017_Jul_18_1058,59.9459467958,DRL_task,1,103,
1,0,1,0,,,1.80199813843,105,89,2,1040.6094451,5,,,,,,,2017_Jul_18_1058,59.9459467958,DRL_task,1,103,
1,0,1,0,,,5.85665893555,106,90,2,1046.4657371,5,,,,,,,2017_Jul_18_1058,59.9459467958,DRL_task,1,103,
1,0,1,0,,,6.60720586777,107,91,2,1053.07299399,5,,,,,,,2017_Jul_18_1058,59.9459467958,DRL_task,1,103,
1,0,1,0,,,7.39002919197,108,92,2,1060.46464396,5,,,,,,,2017_Jul_18_1058,59.9459467958,DRL_task,1,103,
1,0,1,0,,,5.42280197144,109,93,2,1065.88712716,5,,,,,,,2017_Jul_18_1058,59.9459467958,DRL_task,1,103,
1,0,1,0,,,7.42465591431,110,94,2,1073.31200004,5,,,,,,,2017_Jul_18_1058,59.9459467958,DRL_task,1,103,
1,0,1,0,,,6.80747699738,111,95,2,1080.119596,5,,,,,,,2017_Jul_18_1058,59.9459467958,DRL_task,1,103,
1,0,1,0,,,5.20733094215,112,96,2,1085.325243,5,,,,,,,2017_Jul_18_1058,59.9459467958,DRL_task,1,103,
1,0,1,0,,,8.84265899658,113,97,2,1094.1683321,5,,,,,,,2017_Jul_18_1058,59.9459467958,DRL_task,1,103,
1,0,1,0,,,5.69015002251,114,98,2,1099.85762215,5,,,,,,,2017_Jul_18_1058,59.9459467958,DRL_task,1,103,
1,0,1,0,,,6.65719413757,115,99,2,1106.51518202,5,,,,,,,2017_Jul_18_1058,59.9459467958,DRL_task,1,103,
1,0,1,0,,,3.75405693054,115,100,2,1110.26913714,5,,,,,,,2017_Jul_18_1058,59.9459467958,DRL_task,1,103,
1,0,1,0,,,6.23995995522,116,101,2,1116.50949812,5,,,,,,,2017_Jul_18_1058,59.9459467958,DRL_task,1,103,
1,0,1,0,,,11.4962179661,117,102,2,1128.00528598,5,,,,,,,2017_Jul_18_1058,59.9459467958,DRL_task,1,103,
1,0,1,0,,,4.35454416275,117,103,2,1132.36007714,5,,,,,,,2017_Jul_18_1058,59.9459467958,DRL_task,1,103,
1,0,1,0,,,8.55954384804,118,104,2,1140.91935205,5,,,,,,,2017_Jul_18_1058,59.9459467958,DRL_task,1,103,
1,0,1,0,,,3.72033905983,118,105,2,1144.63997102,5,,,,,,,2017_Jul_18_1058,59.9459467958,DRL_task,1,103,
1,0,1,0,,,5.504570961,119,106,2,1150.14597607,5,,,,,,,2017_Jul_18_1058,59.9459467958,DRL_task,1,103,
1,0,1,0,,,5.22205615044,120,107,2,1155.36814809,5,,,,,,,2017_Jul_18_1058,59.9459467958,DRL_task,1,103,
1,0,1,0,,,8.64408588409,121,108,2,1164.01058698,5,,,,,,,2017_Jul_18_1058,59.9459467958,DRL_task,1,103,
1,0,1,0,,,5.10517811775,122,109,2,1169.11586404,5,,,,,,,2017_Jul_18_1058,59.9459467958,DRL_task,1,103,
1,0,1,0,,,4.93866181374,122,110,2,1174.05454803,5,,,,,,,2017_Jul_18_1058,59.9459467958,DRL_task,1,103,
1,0,1,0,,,8.25911808014,123,111,2,1182.31323314,5,,,,,,,2017_Jul_18_1058,59.9459467958,DRL_task,1,103,
1,0,1,0,,,5.9390540123,124,112,2,1188.25301003,5,,,,,,,2017_Jul_18_1058,59.9459467958,DRL_task,1,103,
1,0,1,0,,,1.18462705612,124,113,2,1189.43768215,5,,,,,,,2017_Jul_18_1058,59.9459467958,DRL_task,1,103,
1,0,1,0,,,1.31699180603,124,114,2,1190.75553298,5,,,,,,,2017_Jul_18_1058,59.9459467958,DRL_task,1,103,
1,0,1,0,,,8.95927715302,125,115,2,1199.71519613,5,,,,,,,2017_Jul_18_1058,59.9459467958,DRL_task,1,103,
1,0,1,0,,,9.09311795235,126,116,2,1208.80796909,5,,,,,,,2017_Jul_18_1058,59.9459467958,DRL_task,1,103,
1,0,1,0,,,7.72611498833,127,117,2,1216.53283405,5,,,,,,,2017_Jul_18_1058,59.9459467958,DRL_task,1,103,
1,0,1,0,,,,,,,,,"['space', 'space', 'space', 'space', 'space', 'space', 'space', 'space', 'space', 'space', 'space', 'space', 'space', 'space', 'space', 'space', 'space', 'space', 'space', 'space', 'space', 'space', 'space', 'space', 'space', 'space', 'space', 'space', 'space', 'space', 'space', 'space', 'space', 'space', 'space', 'space', 'space', 'space', 'space', 'space', 'space', 'space', 'space', 'space', 'space', 'space', 'space', 'space', 'space', 'space', 'space', 'space', 'space', 'space', 'space', 'space', 'space', 'space', 'space', 'space', 'space', 'space', 'space', 'space', 'space', 'space', 'space', 'space', 'space', 'space', 'space', 'space', 'space', 'space', 'space', 'space', 'space', 'space', 'space', 'space', 'space', 'space', 'space', 'space', 'space', 'space', 'space', 'space', 'space', 'space', 'space', 'space', 'space', 'space', 'space', 'space', 'space', 'space', 'space', 'space', 'space', 'space', 'space', 'space', 'space', 'space', 'space', 'space', 'space', 'space', 'space', 'space', 'space', 'space', 'space', 'space', 'space']","[2.811354160308838, 5.264463186264038, 7.249750137329102, 9.584383010864258, 11.888232231140137, 14.106167078018188, 16.77689003944397, 19.645206212997437, 23.20090913772583, 27.30523705482483, 31.326300144195557, 36.13137412071228, 41.82093906402588, 49.34475612640381, 53.46685814857483, 57.07107210159302, 61.42582607269287, 66.46485304832458, 73.30566000938416, 78.02712416648865, 82.44740104675293, 86.76911306381226, 93.62755918502808, 100.10019111633301, 106.8754460811615, 114.79983711242676, 119.82370710372925, 124.37832307815552, 127.7138741016388, 132.4706790447235, 138.0265040397644, 142.27995800971985, 147.00166416168213, 153.47524404525757, 158.03180408477783, 163.10405707359314, 168.40864300727844, 172.21277713775635, 176.31846809387207, 182.09029722213745, 185.41058611869812, 189.4663860797882, 194.83730721473694, 198.7098572254181, 203.8305380344391, 212.39193320274353, 216.82983207702637, 226.7226071357727, 232.02969813346863, 236.250746011734, 240.72131299972534, 246.42885422706604, 255.7724061012268, 263.23035621643066, 267.5671501159668, 275.8431820869446, 281.6327030658722, 287.7562081813812, 289.2087571620941, 289.8262541294098, 292.9285960197449, 294.0631642341614, 294.73178911209106, 298.3844110965729, 299.0017421245575, 299.75257301330566, 300.25433707237244, 300.55328702926636, 306.1429810523987, 316.7891991138458, 324.4310550689697, 332.3216621875763, 337.56057119369507, 340.296923160553, 343.5188271999359, 347.0546131134033, 353.22938799858093, 357.71779322624207, 365.1255941390991, 369.5472741127014, 376.2879180908203, 384.4302740097046, 390.43688011169434, 400.52984619140625, 411.69356322288513, 414.7137351036072, 416.0469160079956, 418.9678270816803, 420.76982522010803, 426.6264841556549, 433.23369002342224, 440.62371921539307, 446.0465211868286, 453.47117710113525, 460.27865409851074, 465.4859850406647, 474.3286440372467, 480.0187940597534, 486.67598819732666, 490.43004512786865, 496.6700050830841, 508.1662230491638, 512.5207672119141, 521.0803110599518, 524.8006501197815, 530.30522108078, 535.5272772312164, 544.1713631153107, 549.2765412330627, 554.2152030467987, 562.4743211269379, 568.4133751392365, 569.5980021953583, 570.9149940013885, 579.8742711544037, 588.9673891067505, 596.6935040950775]",space,7.6763780117,,,2017_Jul_18_1058,59.9459467958,DRL_task,1,103,
2,0,2,0,,,0.953079938889,127,1,3,1229.64676905,5,,,,,,,2017_Jul_18_1058,59.9459467958,DRL_task,1,103,
2,0,2,0,,,14.7644910812,128,2,3,1244.41236997,5,,,,,,,2017_Jul_18_1058,59.9459467958,DRL_task,1,103,
2,0,2,0,,,17.586755991,129,3,3,1261.99773812,5,,,,,,,2017_Jul_18_1058,59.9459467958,DRL_task,1,103,
2,0,2,0,,,8.84270405769,130,4,3,1270.84056997,5,,,,,,,2017_Jul_18_1058,59.9459467958,DRL_task,1,103,
2,0,2,0,,,9.44155097008,131,5,3,1280.30017304,5,,,,,,,2017_Jul_18_1058,59.9459467958,DRL_task,1,103,
2,0,2,0,,,10.2109098434,132,6,3,1290.49471807,5,,,,,,,2017_Jul_18_1058,59.9459467958,DRL_task,1,103,
2,0,2,0,,,11.0634160042,133,7,3,1301.55626702,5,,,,,,,2017_Jul_18_1058,59.9459467958,DRL_task,1,103,
2,0,2,0,,,10.2438540459,134,8,3,1311.80062294,5,,,,,,,2017_Jul_18_1058,59.9459467958,DRL_task,1,103,
2,0,2,0,,,8.8596971035,135,9,3,1320.6767211,5,,,,,,,2017_Jul_18_1058,59.9459467958,DRL_task,1,103,
2,0,2,0,,,7.09074783325,136,10,3,1327.75067115,5,,,,,,,2017_Jul_18_1058,59.9459467958,DRL_task,1,103,
2,0,2,0,,,11.1955161095,137,11,3,1338.94591999,5,,,,,,,2017_Jul_18_1058,59.9459467958,DRL_task,1,103,
2,0,2,0,,,8.72435808182,138,12,3,1347.67187309,5,,,,,,,2017_Jul_18_1058,59.9459467958,DRL_task,1,103,
2,0,2,0,,,6.84223890305,139,13,3,1354.51240802,5,,,,,,,2017_Jul_18_1058,59.9459467958,DRL_task,1,103,
2,0,2,0,,,6.32120013237,140,14,3,1360.85262394,5,,,,,,,2017_Jul_18_1058,59.9459467958,DRL_task,1,103,
2,0,2,0,,,8.36096286774,141,15,3,1369.19468808,5,,,,,,,2017_Jul_18_1058,59.9459467958,DRL_task,1,103,
2,0,2,0,,,8.97435712814,142,16,3,1378.18777514,5,,,,,,,2017_Jul_18_1058,59.9459467958,DRL_task,1,103,
2,0,2,0,,,1.33671593666,142,17,3,1379.52236915,5,,,,,,,2017_Jul_18_1058,59.9459467958,DRL_task,1,103,
2,0,2,0,,,2.3017718792,142,18,3,1381.80822802,5,,,,,,,2017_Jul_18_1058,59.9459467958,DRL_task,1,103,
2,0,2,0,,,27.8954219818,143,19,3,1409.70433307,5,,,,,,,2017_Jul_18_1058,59.9459467958,DRL_task,1,103,
2,0,2,0,,,6.24048399925,144,20,3,1415.94447494,5,,,,,,,2017_Jul_18_1058,59.9459467958,DRL_task,1,103,
2,0,2,0,,,7.87427997589,145,21,3,1423.81883812,5,,,,,,,2017_Jul_18_1058,59.9459467958,DRL_task,1,103,
2,0,2,0,,,14.6505601406,146,22,3,1438.46829605,5,,,,,,,2017_Jul_18_1058,59.9459467958,DRL_task,1,103,
2,0,2,0,,,8.72398209572,147,23,3,1447.19419694,5,,,,,,,2017_Jul_18_1058,59.9459467958,DRL_task,1,103,
2,0,2,0,,,8.8929309845,148,24,3,1456.08699894,5,,,,,,,2017_Jul_18_1058,59.9459467958,DRL_task,1,103,
2,0,2,0,,,6.2745859623,149,25,3,1462.36009812,5,,,,,,,2017_Jul_18_1058,59.9459467958,DRL_task,1,103,
2,0,2,0,,,4.97050786018,149,26,3,1467.3323431,5,,,,,,,2017_Jul_18_1058,59.9459467958,DRL_task,1,103,
2,0,2,0,,,12.1641130447,150,27,3,1479.49470806,5,,,,,,,2017_Jul_18_1058,59.9459467958,DRL_task,1,103,
2,0,2,0,,,5.2390999794,151,28,3,1484.73404217,5,,,,,,,2017_Jul_18_1058,59.9459467958,DRL_task,1,103,
2,0,2,0,,,0.332388162613,151,29,3,1485.06759214,5,,,,,,,2017_Jul_18_1058,59.9459467958,DRL_task,1,103,
2,0,2,0,,,5.53906798363,152,30,3,1490.60694695,5,,,,,,,2017_Jul_18_1058,59.9459467958,DRL_task,1,103,
2,0,2,0,,,6.7909219265,153,31,3,1497.39725804,5,,,,,,,2017_Jul_18_1058,59.9459467958,DRL_task,1,103,
2,0,2,0,,,6.23990893364,154,32,3,1503.63720202,5,,,,,,,2017_Jul_18_1058,59.9459467958,DRL_task,1,103,
2,0,2,0,,,2.50243115425,154,33,3,1506.13984299,5,,,,,,,2017_Jul_18_1058,59.9459467958,DRL_task,1,103,
2,0,2,0,,,7.97516679764,155,34,3,1514.1149981,5,,,,,,,2017_Jul_18_1058,59.9459467958,DRL_task,1,103,
2,0,2,0,,,4.48954415321,155,35,3,1518.60326195,5,,,,,,,2017_Jul_18_1058,59.9459467958,DRL_task,1,103,
2,0,2,0,,,4.98718190193,155,36,3,1523.59172702,5,,,,,,,2017_Jul_18_1058,59.9459467958,DRL_task,1,103,
2,0,2,0,,,7.60789012909,156,37,3,1531.19991612,5,,,,,,,2017_Jul_18_1058,59.9459467958,DRL_task,1,103,
2,0,2,0,,,8.92611885071,157,38,3,1540.12604713,5,,,,,,,2017_Jul_18_1058,59.9459467958,DRL_task,1,103,
2,0,2,0,,,8.09349513054,158,39,3,1548.23459005,5,,,,,,,2017_Jul_18_1058,59.9459467958,DRL_task,1,103,
2,0,2,0,,,7.85817193985,159,40,3,1556.07609415,5,,,,,,,2017_Jul_18_1058,59.9459467958,DRL_task,1,103,
2,0,2,0,,,6.08931803703,160,41,3,1562.16585898,5,,,,,,,2017_Jul_18_1058,59.9459467958,DRL_task,1,103,
2,0,2,0,,,7.97434997559,161,42,3,1570.14103794,5,,,,,,,2017_Jul_18_1058,59.9459467958,DRL_task,1,103,
2,0,2,0,,,7.45785093307,162,43,3,1577.59896994,5,,,,,,,2017_Jul_18_1058,59.9459467958,DRL_task,1,103,
2,0,2,0,,,7.62585306168,163,44,3,1585.223804,5,,,,,,,2017_Jul_18_1058,59.9459467958,DRL_task,1,103,
2,0,2,0,,,10.8448328972,164,45,3,1596.06860113,5,,,,,,,2017_Jul_18_1058,59.9459467958,DRL_task,1,103,
2,0,2,0,,,8.05893015862,165,46,3,1604.12702703,5,,,,,,,2017_Jul_18_1058,59.9459467958,DRL_task,1,103,
2,0,2,0,,,7.65665698051,166,47,3,1611.81859708,5,,,,,,,2017_Jul_18_1058,59.9459467958,DRL_task,1,103,
2,0,2,0,,,10.8794059753,167,48,3,1622.66333914,5,,,,,,,2017_Jul_18_1058,59.9459467958,DRL_task,1,103,
2,0,2,0,,,6.23970103264,168,49,3,1628.90347004,5,,,,,,,2017_Jul_18_1058,59.9459467958,DRL_task,1,103,
2,0,2,0,,,8.20756483078,169,50,3,1637.11199594,5,,,,,,,2017_Jul_18_1058,59.9459467958,DRL_task,1,103,
2,0,2,0,,,6.17333912849,170,51,3,1643.28519511,5,,,,,,,2017_Jul_18_1058,59.9459467958,DRL_task,1,103,
2,0,2,0,,,7.20872998238,171,52,3,1650.49302197,5,,,,,,,2017_Jul_18_1058,59.9459467958,DRL_task,1,103,
2,0,2,0,,,5.72292494774,172,53,3,1656.21557999,5,,,,,,,2017_Jul_18_1058,59.9459467958,DRL_task,1,103,
2,0,2,0,,,6.35685706139,173,54,3,1662.57255507,5,,,,,,,2017_Jul_18_1058,59.9459467958,DRL_task,1,103,
2,0,2,0,,,9.32498908043,174,55,3,1671.89911604,5,,,,,,,2017_Jul_18_1058,59.9459467958,DRL_task,1,103,
2,0,2,0,,,5.95756101608,175,56,3,1677.85530615,5,,,,,,,2017_Jul_18_1058,59.9459467958,DRL_task,1,103,
2,0,2,0,,,3.95293188095,175,57,3,1681.80945802,5,,,,,,,2017_Jul_18_1058,59.9459467958,DRL_task,1,103,
2,0,2,0,,,3.13665509224,175,58,3,1684.94613004,5,,,,,,,2017_Jul_18_1058,59.9459467958,DRL_task,1,103,
2,0,2,0,,,4.25468993187,175,59,3,1689.20051908,5,,,,,,,2017_Jul_18_1058,59.9459467958,DRL_task,1,103,
2,0,2,0,,,5.67246294022,176,60,3,1694.87300205,5,,,,,,,2017_Jul_18_1058,59.9459467958,DRL_task,1,103,
2,0,2,0,,,0.435326099396,176,61,3,1695.30701709,5,,,,,,,2017_Jul_18_1058,59.9459467958,DRL_task,1,103,
2,0,2,0,,,4.43609285355,176,62,3,1699.7447741,5,,,,,,,2017_Jul_18_1058,59.9459467958,DRL_task,1,103,
2,0,2,0,,,6.23960018158,177,63,3,1705.98443103,5,,,,,,,2017_Jul_18_1058,59.9459467958,DRL_task,1,103,
2,0,2,0,,,6.37444591522,178,64,3,1712.35748696,5,,,,,,,2017_Jul_18_1058,59.9459467958,DRL_task,1,103,
2,0,2,0,,,10.8263800144,179,65,3,1723.18516898,5,,,,,,,2017_Jul_18_1058,59.9459467958,DRL_task,1,103,
2,0,2,0,,,7.45770907402,180,66,3,1730.64253616,5,,,,,,,2017_Jul_18_1058,59.9459467958,DRL_task,1,103,
2,0,2,0,,,8.67525696754,181,67,3,1739.31806302,5,,,,,,,2017_Jul_18_1058,59.9459467958,DRL_task,1,103,
2,0,2,0,,,9.41119289398,182,68,3,1748.76099205,5,,,,,,,2017_Jul_18_1058,59.9459467958,DRL_task,1,103,
2,0,2,0,,,7.10684609413,183,69,3,1755.83488107,5,,,,,,,2017_Jul_18_1058,59.9459467958,DRL_task,1,103,
2,0,2,0,,,6.98928904533,184,70,3,1762.8251121,5,,,,,,,2017_Jul_18_1058,59.9459467958,DRL_task,1,103,
2,0,2,0,,,5.05616688728,185,71,3,1767.88031507,5,,,,,,,2017_Jul_18_1058,59.9459467958,DRL_task,1,103,
2,0,2,0,,,5.53925609589,186,72,3,1773.41919112,5,,,,,,,2017_Jul_18_1058,59.9459467958,DRL_task,1,103,
2,0,2,0,,,5.52197194099,187,73,3,1778.94166398,5,,,,,,,2017_Jul_18_1058,59.9459467958,DRL_task,1,103,
2,0,2,0,,,5.08746600151,188,74,3,1784.02996993,5,,,,,,,2017_Jul_18_1058,59.9459467958,DRL_task,1,103,
2,0,2,0,,,4.35442996025,188,75,3,1788.38461304,5,,,,,,,2017_Jul_18_1058,59.9459467958,DRL_task,1,103,
2,0,2,0,,,7.64093708992,189,76,3,1796.02525496,5,,,,,,,2017_Jul_18_1058,59.9459467958,DRL_task,1,103,
2,0,2,0,,,8.84366893768,190,77,3,1804.86775804,5,,,,,,,2017_Jul_18_1058,59.9459467958,DRL_task,1,103,
2,0,2,0,,,6.84035491943,191,78,3,1811.70819402,5,,,,,,,2017_Jul_18_1058,59.9459467958,DRL_task,1,103,
2,0,2,0,,,7.57313418388,192,79,3,1819.28252196,5,,,,,,,2017_Jul_18_1058,59.9459467958,DRL_task,1,103,
2,0,2,0,,,3.35315585136,192,80,3,1822.63599396,5,,,,,,,2017_Jul_18_1058,59.9459467958,DRL_task,1,103,
2,0,2,0,,,0.218657970428,192,81,3,1822.85272193,5,,,,,,,2017_Jul_18_1058,59.9459467958,DRL_task,1,103,
2,0,2,0,,,4.42064118385,192,82,3,1827.30743599,5,,,,,,,2017_Jul_18_1058,59.9459467958,DRL_task,1,103,
2,0,2,0,,,,,,,,,"['space', 'space', 'space', 'space', 'space', 'space', 'space', 'space', 'space', 'space', 'space', 'space', 'space', 'space', 'space', 'space', 'space', 'space', 'space', 'space', 'space', 'space', 'space', 'space', 'space', 'space', 'space', 'space', 'space', 'space', 'space', 'space', 'space', 'space', 'space', 'space', 'space', 'space', 'space', 'space', 'space', 'space', 'space', 'space', 'space', 'space', 'space', 'space', 'space', 'space', 'space', 'space', 'space', 'space', 'space', 'space', 'space', 'space', 'space', 'space', 'space', 'space', 'space', 'space', 'space', 'space', 'space', 'space', 'space', 'space', 'space', 'space', 'space', 'space', 'space', 'space', 'space', 'space', 'space', 'space', 'space', 'space']","[0.9530799388885498, 15.717571020126343, 33.3043270111084, 42.14703106880188, 51.588582038879395, 61.79949188232422, 72.86290788650513, 83.10676193237305, 91.96645903587341, 99.05720686912537, 110.25272297859192, 118.97708106040955, 125.8193199634552, 132.1405200958252, 140.501482963562, 149.47584009170532, 150.8125560283661, 153.11432790756226, 181.00974988937378, 187.2502338886261, 195.1245138645172, 209.77507400512695, 218.49905610084534, 227.3919870853424, 233.66657304763794, 238.63708090782166, 250.80119395256042, 256.04029393196106, 256.372682094574, 261.9117500782013, 268.7026720046997, 274.94258093833923, 277.44501209259033, 285.42017889022827, 289.9097230434418, 294.89690494537354, 302.5047950744629, 311.4309139251709, 319.52440905570984, 327.3825809955597, 333.4718990325928, 341.4462490081787, 348.90409994125366, 356.5299530029297, 367.37478590011597, 375.4337160587311, 383.0903730392456, 393.9697790145874, 400.20948004722595, 408.417044878006, 414.59038400650024, 421.79911398887634, 427.522038936615, 433.8788959980011, 443.2038850784302, 449.16144609451294, 453.11437797546387, 456.25103306770325, 460.50572299957275, 466.1781859397888, 466.61351203918457, 471.0496048927307, 477.2892050743103, 483.66365098953247, 494.490031003952, 501.9477400779724, 510.62299704551697, 520.0341899394989, 527.1410360336304, 534.1303250789642, 539.1864919662476, 544.7257480621338, 550.247720003128, 555.3351860046387, 559.6896159648895, 567.3305530548096, 576.1742219924927, 583.0145769119263, 590.5877110958099, 593.9408669471741, 594.1595249176025, 598.5801661014557]",space,6.95888400078,,,2017_Jul_18_1058,59.9459467958,DRL_task,1,103,
3,0,3,0,,,9.21928095818,193,1,4,1846.09303308,5,,,,,,,2017_Jul_18_1058,59.9459467958,DRL_task,1,103,
3,0,3,0,,,10.1614329815,194,2,4,1856.25349116,5,,,,,,,2017_Jul_18_1058,59.9459467958,DRL_task,1,103,
3,0,3,0,,,9.47698307037,195,3,4,1865.7297771,5,,,,,,,2017_Jul_18_1058,59.9459467958,DRL_task,1,103,
3,0,3,0,,,10.4421598911,196,4,4,1876.17388916,5,,,,,,,2017_Jul_18_1058,59.9459467958,DRL_task,1,103,
3,0,3,0,,,7.42440700531,197,5,4,1883.59795904,5,,,,,,,2017_Jul_18_1058,59.9459467958,DRL_task,1,103,
3,0,3,0,,,5.7726790905,198,6,4,1889.370435,5,,,,,,,2017_Jul_18_1058,59.9459467958,DRL_task,1,103,
3,0,3,0,,,4.888215065,198,7,4,1894.25885701,5,,,,,,,2017_Jul_18_1058,59.9459467958,DRL_task,1,103,
3,0,3,0,,,4.83819794655,198,8,4,1899.09703708,5,,,,,,,2017_Jul_18_1058,59.9459467958,DRL_task,1,103,
3,0,3,0,,,5.13857007027,199,9,4,1904.23560405,5,,,,,,,2017_Jul_18_1058,59.9459467958,DRL_task,1,103,
3,0,3,0,,,3.90414595604,199,10,4,1908.13955116,5,,,,,,,2017_Jul_18_1058,59.9459467958,DRL_task,1,103,
3,0,3,0,,,4.88923287392,199,11,4,1913.02809811,5,,,,,,,2017_Jul_18_1058,59.9459467958,DRL_task,1,103,
3,0,3,0,,,5.07059216499,200,12,4,1918.09992003,5,,,,,,,2017_Jul_18_1058,59.9459467958,DRL_task,1,103,
3,0,3,0,,,6.25833296776,201,13,4,1924.372859,5,,,,,,,2017_Jul_18_1058,59.9459467958,DRL_task,1,103,
3,0,3,0,,,3.28492283821,201,14,4,1927.64284205,5,,,,,,,2017_Jul_18_1058,59.9459467958,DRL_task,1,103,
3,0,3,0,,,4.10419106483,201,15,4,1931.74701595,5,,,,,,,2017_Jul_18_1058,59.9459467958,DRL_task,1,103,
3,0,3,0,,,9.10734415054,202,16,4,1940.85626817,5,,,,,,,2017_Jul_18_1058,59.9459467958,DRL_task,1,103,
3,0,3,0,,,3.74035000801,202,17,4,1944.59344196,5,,,,,,,2017_Jul_18_1058,59.9459467958,DRL_task,1,103,
3,0,3,0,,,5.12046194077,203,18,4,1949.71551514,5,,,,,,,2017_Jul_18_1058,59.9459467958,DRL_task,1,103,
3,0,3,0,,,6.27430200577,204,19,4,1955.98864913,5,,,,,,,2017_Jul_18_1058,59.9459467958,DRL_task,1,103,
3,0,3,0,,,8.0569729805,205,20,4,1964.04679203,5,,,,,,,2017_Jul_18_1058,59.9459467958,DRL_task,1,103,
3,0,3,0,,,7.70802783966,206,21,4,1971.75448298,5,,,,,,,2017_Jul_18_1058,59.9459467958,DRL_task,1,103,
3,0,3,0,,,7.22393202782,207,22,4,1978.97843194,5,,,,,,,2017_Jul_18_1058,59.9459467958,DRL_task,1,103,
3,0,3,0,,,8.75874900818,208,23,4,1987.73751497,5,,,,,,,2017_Jul_18_1058,59.9459467958,DRL_task,1,103,
3,0,3,0,,,5.64050316811,209,24,4,1993.37588,5,,,,,,,2017_Jul_18_1058,59.9459467958,DRL_task,1,103,
3,0,3,0,,,5.55550193787,210,25,4,1998.93196416,5,,,,,,,2017_Jul_18_1058,59.9459467958,DRL_task,1,103,
3,0,3,0,,,5.18835186958,211,26,4,2004.12067699,5,,,,,,,2017_Jul_18_1058,59.9459467958,DRL_task,1,103,
3,0,3,0,,,8.09106302261,212,27,4,2012.21199393,5,,,,,,,2017_Jul_18_1058,59.9459467958,DRL_task,1,103,
3,0,3,0,,,14.0983941555,213,28,4,2026.30970097,5,,,,,,,2017_Jul_18_1058,59.9459467958,DRL_task,1,103,
3,0,3,0,,,5.87121295929,214,29,4,2032.18236804,5,,,,,,,2017_Jul_18_1058,59.9459467958,DRL_task,1,103,
3,0,3,0,,,5.79050302505,215,30,4,2037.971452,5,,,,,,,2017_Jul_18_1058,59.9459467958,DRL_task,1,103,
3,0,3,0,,,6.45507001877,216,31,4,2044.42807698,5,,,,,,,2017_Jul_18_1058,59.9459467958,DRL_task,1,103,
3,0,3,0,,,5.59028697014,217,32,4,2050.01710701,5,,,,,,,2017_Jul_18_1058,59.9459467958,DRL_task,1,103,
3,0,3,0,,,4.10412192345,217,33,4,2054.1212461,5,,,,,,,2017_Jul_18_1058,59.9459467958,DRL_task,1,103,
3,0,3,0,,,5.28884506226,218,34,4,2059.40988111,5,,,,,,,2017_Jul_18_1058,59.9459467958,DRL_task,1,103,
3,0,3,0,,,9.49156689644,219,35,4,2068.90292311,5,,,,,,,2017_Jul_18_1058,59.9459467958,DRL_task,1,103,
3,0,3,0,,,8.97589111328,220,36,4,2077.87846613,5,,,,,,,2017_Jul_18_1058,59.9459467958,DRL_task,1,103,
3,0,3,0,,,8.25836491585,221,37,4,2086.13671112,5,,,,,,,2017_Jul_18_1058,59.9459467958,DRL_task,1,103,
3,0,3,0,,,6.99198412895,222,38,4,2093.1274991,5,,,,,,,2017_Jul_18_1058,59.9459467958,DRL_task,1,103,
3,0,3,0,,,8.70879983902,223,39,4,2101.83625913,5,,,,,,,2017_Jul_18_1058,59.9459467958,DRL_task,1,103,
3,0,3,0,,,8.02329707146,224,40,4,2109.86095715,5,,,,,,,2017_Jul_18_1058,59.9459467958,DRL_task,1,103,
3,0,3,0,,,7.8927719593,225,41,4,2117.75237107,5,,,,,,,2017_Jul_18_1058,59.9459467958,DRL_task,1,103,
3,0,3,0,,,5.52074694633,226,42,4,2123.274472,5,,,,,,,2017_Jul_18_1058,59.9459467958,DRL_task,1,103,
3,0,3,0,,,4.78801202774,226,43,4,2128.06283307,5,,,,,,,2017_Jul_18_1058,59.9459467958,DRL_task,1,103,
3,0,3,0,,,9.69330811501,227,44,4,2137.75575995,5,,,,,,,2017_Jul_18_1058,59.9459467958,DRL_task,1,103,
3,0,3,0,,,8.09272885323,228,45,4,2145.8472681,5,,,,,,,2017_Jul_18_1058,59.9459467958,DRL_task,1,103,
3,0,3,0,,,6.69011521339,229,46,4,2152.53747511,5,,,,,,,2017_Jul_18_1058,59.9459467958,DRL_task,1,103,
3,0,3,0,,,17.3841779232,230,47,4,2169.92156315,5,,,,,,,2017_Jul_18_1058,59.9459467958,DRL_task,1,103,
3,0,3,0,,,11.9609699249,231,48,4,2181.88373613,5,,,,,,,2017_Jul_18_1058,59.9459467958,DRL_task,1,103,
3,0,3,0,,,8.05974793434,232,49,4,2189.94186497,5,,,,,,,2017_Jul_18_1058,59.9459467958,DRL_task,1,103,
3,0,3,0,,,5.72064518929,233,50,4,2195.66451812,5,,,,,,,2017_Jul_18_1058,59.9459467958,DRL_task,1,103,
3,0,3,0,,,5.49030184746,234,51,4,2201.15321398,5,,,,,,,2017_Jul_18_1058,59.9459467958,DRL_task,1,103,
3,0,3,0,,,8.57414197922,235,52,4,2209.72859216,5,,,,,,,2017_Jul_18_1058,59.9459467958,DRL_task,1,103,
3,0,3,0,,,6.8568880558,236,53,4,2216.58543801,5,,,,,,,2017_Jul_18_1058,59.9459467958,DRL_task,1,103,
3,0,3,0,,,7.77585601807,237,54,4,2224.36010814,5,,,,,,,2017_Jul_18_1058,59.9459467958,DRL_task,1,103,
3,0,3,0,,,9.30822110176,238,55,4,2233.669523,5,,,,,,,2017_Jul_18_1058,59.9459467958,DRL_task,1,103,
3,0,3,0,,,10.0445129871,239,56,4,2243.71316695,5,,,,,,,2017_Jul_18_1058,59.9459467958,DRL_task,1,103,
3,0,3,0,,,10.677891016,240,57,4,2254.39095712,5,,,,,,,2017_Jul_18_1058,59.9459467958,DRL_task,1,103,
3,0,3,0,,,11.5455060005,241,58,4,2265.93640304,5,,,,,,,2017_Jul_18_1058,59.9459467958,DRL_task,1,103,
3,0,3,0,,,5.75575780869,242,59,4,2271.70904899,5,,,,,,,2017_Jul_18_1058,59.9459467958,DRL_task,1,103,
3,0,3,0,,,4.97242617607,242,60,4,2276.66404796,5,,,,,,,2017_Jul_18_1058,59.9459467958,DRL_task,1,103,
3,0,3,0,,,18.8846228123,243,61,4,2295.55047011,5,,,,,,,2017_Jul_18_1058,59.9459467958,DRL_task,1,103,
3,0,3,0,,,5.5404791832,244,62,4,2301.08949709,5,,,,,,,2017_Jul_18_1058,59.9459467958,DRL_task,1,103,
3,0,3,0,,,7.52331781387,245,63,4,2308.613868,5,,,,,,,2017_Jul_18_1058,59.9459467958,DRL_task,1,103,
3,0,3,0,,,10.7944262028,246,64,4,2319.40882802,5,,,,,,,2017_Jul_18_1058,59.9459467958,DRL_task,1,103,
3,0,3,0,,,4.93843102455,246,65,4,2324.34725714,5,,,,,,,2017_Jul_18_1058,59.9459467958,DRL_task,1,103,
3,0,3,0,,,10.5864830017,247,66,4,2334.94176507,5,,,,,,,2017_Jul_18_1058,59.9459467958,DRL_task,1,103,
3,0,3,0,,,7.66613388062,248,67,4,2342.59953499,5,,,,,,,2017_Jul_18_1058,59.9459467958,DRL_task,1,103,
3,0,3,0,,,6.00785112381,249,68,4,2348.60580206,5,,,,,,,2017_Jul_18_1058,59.9459467958,DRL_task,1,103,
3,0,3,0,,,7.19037795067,250,69,4,2355.79662514,5,,,,,,,2017_Jul_18_1058,59.9459467958,DRL_task,1,103,
3,0,3,0,,,4.92065501213,250,70,4,2360.71857905,5,,,,,,,2017_Jul_18_1058,59.9459467958,DRL_task,1,103,
3,0,3,0,,,1.11767697334,250,71,4,2361.83644009,5,,,,,,,2017_Jul_18_1058,59.9459467958,DRL_task,1,103,
3,0,3,0,,,7.22441601753,251,72,4,2369.06051207,5,,,,,,,2017_Jul_18_1058,59.9459467958,DRL_task,1,103,
3,0,3,0,,,5.32330203056,252,73,4,2374.38271499,5,,,,,,,2017_Jul_18_1058,59.9459467958,DRL_task,1,103,
3,0,3,0,,,7.4248239994,253,74,4,2381.82385206,5,,,,,,,2017_Jul_18_1058,59.9459467958,DRL_task,1,103,
3,0,3,0,,,6.45501899719,254,75,4,2388.26406217,5,,,,,,,2017_Jul_18_1058,59.9459467958,DRL_task,1,103,
3,0,3,0,,,7.90833687782,255,76,4,2396.17233014,5,,,,,,,2017_Jul_18_1058,59.9459467958,DRL_task,1,103,
3,0,3,0,,,5.3059720993,256,77,4,2401.47769213,5,,,,,,,2017_Jul_18_1058,59.9459467958,DRL_task,1,103,
3,0,3,0,,,8.39290094376,257,78,4,2409.88670206,5,,,,,,,2017_Jul_18_1058,59.9459467958,DRL_task,1,103,
3,0,3,0,,,5.08756399155,258,79,4,2414.95855999,5,,,,,,,2017_Jul_18_1058,59.9459467958,DRL_task,1,103,
3,0,3,0,,,8.05852603912,259,80,4,2423.01706314,5,,,,,,,2017_Jul_18_1058,59.9459467958,DRL_task,1,103,
3,0,3,0,,,6.47338104248,260,81,4,2429.49050999,5,,,,,,,2017_Jul_18_1058,59.9459467958,DRL_task,1,103,
3,0,3,0,,,6.50796699524,261,82,4,2435.9970901,5,,,,,,,2017_Jul_18_1058,59.9459467958,DRL_task,1,103,
3,0,3,0,,,,,,,,,"['space', 'space', 'space', 'space', 'space', 'space', 'space', 'space', 'space', 'space', 'space', 'space', 'space', 'space', 'space', 'space', 'space', 'space', 'space', 'space', 'space', 'space', 'space', 'space', 'space', 'space', 'space', 'space', 'space', 'space', 'space', 'space', 'space', 'space', 'space', 'space', 'space', 'space', 'space', 'space', 'space', 'space', 'space', 'space', 'space', 'space', 'space', 'space', 'space', 'space', 'space', 'space', 'space', 'space', 'space', 'space', 'space', 'space', 'space', 'space', 'space', 'space', 'space', 'space', 'space', 'space', 'space', 'space', 'space', 'space', 'space', 'space', 'space', 'space', 'space', 'space', 'space', 'space', 'space', 'space', 'space', 'space']","[9.21928095817566, 19.380713939666748, 28.857697010040283, 39.29985690116882, 46.72426390647888, 52.49694299697876, 57.3851580619812, 62.22335600852966, 67.36192607879639, 71.26607203483582, 76.15530490875244, 81.22589707374573, 87.4842300415039, 90.76915287971497, 94.87334394454956, 103.98068809509277, 107.72103810310364, 112.84150004386902, 119.11580204963684, 127.17277503013611, 134.88080286979675, 142.10473489761353, 150.86348390579224, 156.50398707389832, 162.05948901176453, 167.24784088134766, 175.33890390396118, 189.4372980594635, 195.30851101875305, 201.09901404380798, 207.5540840625763, 213.14437103271484, 217.2484929561615, 222.53733801841736, 232.02890491485596, 241.0047960281372, 249.26316094398499, 256.255145072937, 264.9639449119568, 272.9872419834137, 280.8800139427185, 286.40076088905334, 291.1887729167938, 300.8820810317993, 308.974809885025, 315.6649250984192, 333.0491030216217, 345.01007294654846, 353.0698208808899, 358.79046607017517, 364.28076791763306, 372.8549098968506, 379.711797952652, 387.4876539707184, 396.79587507247925, 406.8403880596161, 417.51827907562256, 429.06378507614136, 434.81954288482666, 439.7919690608978, 458.67659187316895, 464.21707105636597, 471.74038887023926, 482.5348150730133, 487.4732460975647, 498.0597290992737, 505.7258629798889, 511.73371410369873, 518.9240920543671, 523.8447470664978, 524.9624240398407, 532.186840057373, 537.5101420879364, 544.9349660873413, 551.3899850845337, 559.2983219623566, 564.6042940616608, 572.9971950054169, 578.0847589969635, 586.143285036087, 592.6166660785675, 599.1246330738068]",space,14.0164699554,,,2017_Jul_18_1058,59.9459467958,DRL_task,1,103,
4,0,4,0,,,8.11402893066,262,1,5,2460.172436,5,,,,,,,2017_Jul_18_1058,59.9459467958,DRL_task,1,103,
4,0,4,0,,,0.351622104645,262,2,5,2460.52289414,5,,,,,,,2017_Jul_18_1058,59.9459467958,DRL_task,1,103,
4,0,4,0,,,11.0114350319,263,3,5,2471.53425908,5,,,,,,,2017_Jul_18_1058,59.9459467958,DRL_task,1,103,
4,0,4,0,,,7.82361984253,264,4,5,2479.359128,5,,,,,,,2017_Jul_18_1058,59.9459467958,DRL_task,1,103,
4,0,4,0,,,9.66000795364,265,5,5,2489.01943111,5,,,,,,,2017_Jul_18_1058,59.9459467958,DRL_task,1,103,
4,0,4,0,,,6.50697517395,266,6,5,2495.52626395,5,,,,,,,2017_Jul_18_1058,59.9459467958,DRL_task,1,103,
4,0,4,0,,,8.27649593353,267,7,5,2503.80139995,5,,,,,,,2017_Jul_18_1058,59.9459467958,DRL_task,1,103,
4,0,4,0,,,15.4494440556,268,8,5,2519.26750207,5,,,,,,,2017_Jul_18_1058,59.9459467958,DRL_task,1,103,
4,0,4,0,,,16.3325238228,269,9,5,2535.584764,5,,,,,,,2017_Jul_18_1058,59.9459467958,DRL_task,1,103,
4,0,4,0,,,10.4441411495,270,10,5,2546.02895093,5,,,,,,,2017_Jul_18_1058,59.9459467958,DRL_task,1,103,
4,0,4,0,,,7.87498998642,271,11,5,2553.90368295,5,,,,,,,2017_Jul_18_1058,59.9459467958,DRL_task,1,103,
4,0,4,0,,,7.84274697304,272,12,5,2561.77835608,5,,,,,,,2017_Jul_18_1058,59.9459467958,DRL_task,1,103,
4,0,4,0,,,12.8955919743,273,13,5,2574.64213896,5,,,,,,,2017_Jul_18_1058,59.9459467958,DRL_task,1,103,
4,0,4,0,,,8.64230799675,274,14,5,2583.28432703,5,,,,,,,2017_Jul_18_1058,59.9459467958,DRL_task,1,103,
4,0,4,0,,,7.35780000687,275,15,5,2590.64212894,5,,,,,,,2017_Jul_18_1058,59.9459467958,DRL_task,1,103,
4,0,4,0,,,7.2095811367,276,16,5,2597.86655807,5,,,,,,,2017_Jul_18_1058,59.9459467958,DRL_task,1,103,
4,0,4,0,,,12.1783828735,277,17,5,2610.02923012,5,,,,,,,2017_Jul_18_1058,59.9459467958,DRL_task,1,103,
4,0,4,0,,,6.05529904366,278,18,5,2616.08541703,5,,,,,,,2017_Jul_18_1058,59.9459467958,DRL_task,1,103,
4,0,4,0,,,5.52372908592,279,19,5,2621.64124513,5,,,,,,,2017_Jul_18_1058,59.9459467958,DRL_task,1,103,
4,0,4,0,,,6.72354698181,280,20,5,2628.33167315,5,,,,,,,2017_Jul_18_1058,59.9459467958,DRL_task,1,103,
4,0,4,0,,,6.87236690521,281,21,5,2635.22228098,5,,,,,,,2017_Jul_18_1058,59.9459467958,DRL_task,1,103,
4,0,4,0,,,9.47680091858,282,22,5,2644.68218493,5,,,,,,,2017_Jul_18_1058,59.9459467958,DRL_task,1,103,
4,0,4,0,,,9.47798800468,283,23,5,2654.15855312,5,,,,,,,2017_Jul_18_1058,59.9459467958,DRL_task,1,103,
4,0,4,0,,,8.4923491478,284,24,5,2662.66750002,5,,,,,,,2017_Jul_18_1058,59.9459467958,DRL_task,1,103,
4,0,4,0,,,6.55556893349,285,25,5,2669.20760608,5,,,,,,,2017_Jul_18_1058,59.9459467958,DRL_task,1,103,
4,0,4,0,,,5.25499296188,286,26,5,2674.47979498,5,,,,,,,2017_Jul_18_1058,59.9459467958,DRL_task,1,103,
4,0,4,0,,,10.3944990635,287,27,5,2684.89070606,5,,,,,,,2017_Jul_18_1058,59.9459467958,DRL_task,1,103,
4,0,4,0,,,13.4657330513,288,28,5,2698.33807015,5,,,,,,,2017_Jul_18_1058,59.9459467958,DRL_task,1,103,
4,0,4,0,,,10.660836935,289,29,5,2708.99888802,5,,,,,,,2017_Jul_18_1058,59.9459467958,DRL_task,1,103,
4,0,4,0,,,5.77122092247,290,30,5,2714.77179599,5,,,,,,,2017_Jul_18_1058,59.9459467958,DRL_task,1,103,
4,0,4,0,,,7.40907812119,291,31,5,2722.16324306,5,,,,,,,2017_Jul_18_1058,59.9459467958,DRL_task,1,103,
4,0,4,0,,,10.0764489174,292,32,5,2732.24019408,5,,,,,,,2017_Jul_18_1058,59.9459467958,DRL_task,1,103,
4,0,4,0,,,16.3679449558,293,33,5,2748.6240201,5,,,,,,,2017_Jul_18_1058,59.9459467958,DRL_task,1,103,
4,0,4,0,,,9.7257540226,294,34,5,2758.33432698,5,,,,,,,2017_Jul_18_1058,59.9459467958,DRL_task,1,103,
4,0,4,0,,,9.17634010315,295,35,5,2767.52713895,5,,,,,,,2017_Jul_18_1058,59.9459467958,DRL_task,1,103,
4,0,4,0,,,8.51043391228,296,36,5,2776.03609514,5,,,,,,,2017_Jul_18_1058,59.9459467958,DRL_task,1,103,
4,0,4,0,,,6.32161307335,297,37,5,2782.37612796,5,,,,,,,2017_Jul_18_1058,59.9459467958,DRL_task,1,103,
4,0,4,0,,,7.72576785088,298,38,5,2790.10097909,5,,,,,,,2017_Jul_18_1058,59.9459467958,DRL_task,1,103,
4,0,4,0,,,4.55382704735,298,39,5,2794.62227416,5,,,,,,,2017_Jul_18_1058,59.9459467958,DRL_task,1,103,
4,0,4,0,,,7.97635102272,299,40,5,2802.61408997,5,,,,,,,2017_Jul_18_1058,59.9459467958,DRL_task,1,103,
4,0,4,0,,,6.52367901802,300,41,5,2809.13738704,5,,,,,,,2017_Jul_18_1058,59.9459467958,DRL_task,1,103,
4,0,4,0,,,7.79006695747,301,42,5,2816.91213393,5,,,,,,,2017_Jul_18_1058,59.9459467958,DRL_task,1,103,
4,0,4,0,,,7.99174404144,302,43,5,2824.90378499,5,,,,,,,2017_Jul_18_1058,59.9459467958,DRL_task,1,103,
4,0,4,0,,,8.74227595329,303,44,5,2833.64615893,5,,,,,,,2017_Jul_18_1058,59.9459467958,DRL_task,1,103,
4,0,4,0,,,8.69354295731,304,45,5,2842.35557103,5,,,,,,,2017_Jul_18_1058,59.9459467958,DRL_task,1,103,
4,0,4,0,,,15.1657261848,305,46,5,2857.52146316,5,,,,,,,2017_Jul_18_1058,59.9459467958,DRL_task,1,103,
4,0,4,0,,,7.40829801559,306,47,5,2864.92905617,5,,,,,,,2017_Jul_18_1058,59.9459467958,DRL_task,1,103,
4,0,4,0,,,7.04022479057,307,48,5,2871.96998096,5,,,,,,,2017_Jul_18_1058,59.9459467958,DRL_task,1,103,
4,0,4,0,,,7.55703806877,308,49,5,2879.51096416,5,,,,,,,2017_Jul_18_1058,59.9459467958,DRL_task,1,103,
4,0,4,0,,,8.17510414124,309,50,5,2887.68638706,5,,,,,,,2017_Jul_18_1058,59.9459467958,DRL_task,1,103,
4,0,4,0,,,14.7999038696,310,51,5,2902.50175309,5,,,,,,,2017_Jul_18_1058,59.9459467958,DRL_task,1,103,
4,0,4,0,,,8.3424911499,311,52,5,2910.84383106,5,,,,,,,2017_Jul_18_1058,59.9459467958,DRL_task,1,103,
4,0,4,0,,,8.07472395897,312,53,5,2918.93564296,5,,,,,,,2017_Jul_18_1058,59.9459467958,DRL_task,1,103,
4,0,4,0,,,8.69223880768,313,54,5,2927.61150813,5,,,,,,,2017_Jul_18_1058,59.9459467958,DRL_task,1,103,
4,0,4,0,,,5.48915600777,314,55,5,2933.10068703,5,,,,,,,2017_Jul_18_1058,59.9459467958,DRL_task,1,103,
4,0,4,0,,,4.35523605347,314,56,5,2937.45500994,5,,,,,,,2017_Jul_18_1058,59.9459467958,DRL_task,1,103,
4,0,4,0,,,10.5094640255,315,57,5,2947.96603203,5,,,,,,,2017_Jul_18_1058,59.9459467958,DRL_task,1,103,
4,0,4,0,,,7.30888605118,316,58,5,2955.27389693,5,,,,,,,2017_Jul_18_1058,59.9459467958,DRL_task,1,103,
4,0,4,0,,,14.3637559414,317,59,5,2969.62195396,5,,,,,,,2017_Jul_18_1058,59.9459467958,DRL_task,1,103,
4,0,4,0,,,9.29293394089,318,60,5,2978.91503406,5,,,,,,,2017_Jul_18_1058,59.9459467958,DRL_task,1,103,
4,0,4,0,,,8.27673316002,319,61,5,2987.20738006,5,,,,,,,2017_Jul_18_1058,59.9459467958,DRL_task,1,103,
4,0,4,0,,,7.3239300251,320,62,5,2994.53155613,5,,,,,,,2017_Jul_18_1058,59.9459467958,DRL_task,1,103,
4,0,4,0,,,6.47273683548,321,63,5,3000.98815703,5,,,,,,,2017_Jul_18_1058,59.9459467958,DRL_task,1,103,
4,0,4,0,,,5.99033617973,322,64,5,3006.99463296,5,,,,,,,2017_Jul_18_1058,59.9459467958,DRL_task,1,103,
4,0,4,0,,,4.1366558075,322,65,5,3011.13228798,5,,,,,,,2017_Jul_18_1058,59.9459467958,DRL_task,1,103,
4,0,4,0,,,6.50795817375,323,66,5,3017.63895702,5,,,,,,,2017_Jul_18_1058,59.9459467958,DRL_task,1,103,
4,0,4,0,,,5.6381418705,324,67,5,3023.26165414,5,,,,,,,2017_Jul_18_1058,59.9459467958,DRL_task,1,103,
4,0,4,0,,,5.95618414879,325,68,5,3029.21786904,5,,,,,,,2017_Jul_18_1058,59.9459467958,DRL_task,1,103,
4,0,4,0,,,4.55497384071,325,69,5,3033.78923607,5,,,,,,,2017_Jul_18_1058,59.9459467958,DRL_task,1,103,
4,0,4,0,,,8.37659096718,326,70,5,3042.16470003,5,,,,,,,2017_Jul_18_1058,59.9459467958,DRL_task,1,103,
4,0,4,0,,,6.18973612785,327,71,5,3048.35428095,5,,,,,,,2017_Jul_18_1058,59.9459467958,DRL_task,1,103,
4,0,4,0,,,,,,,,,"['space', 'space', 'space', 'space', 'space', 'space', 'space', 'space', 'space', 'space', 'space', 'space', 'space', 'space', 'space', 'space', 'space', 'space', 'space', 'space', 'space', 'space', 'space', 'space', 'space', 'space', 'space', 'space', 'space', 'space', 'space', 'space', 'space', 'space', 'space', 'space', 'space', 'space', 'space', 'space', 'space', 'space', 'space', 'space', 'space', 'space', 'space', 'space', 'space', 'space', 'space', 'space', 'space', 'space', 'space', 'space', 'space', 'space', 'space', 'space', 'space', 'space', 'space', 'space', 'space', 'space', 'space', 'space', 'space', 'space', 'space']","[8.114028930664062, 8.465651035308838, 19.477086067199707, 27.300705909729004, 36.9607138633728, 43.467689037323, 51.74418497085571, 67.19362902641296, 83.52615284919739, 93.97029399871826, 101.84528398513794, 109.68803095817566, 122.58362293243408, 131.22593092918396, 138.58373093605042, 145.7933120727539, 157.97169494628906, 164.02699398994446, 169.5507230758667, 176.27427005767822, 183.14663696289062, 192.62343788146973, 202.10142588615417, 210.5937750339508, 217.14934396743774, 222.4043369293213, 232.7988359928131, 246.26456904411316, 256.9254059791565, 262.6966269016266, 270.1057050228119, 280.1821539402008, 296.5500988960266, 306.2758529186249, 315.4521930217743, 323.9626269340515, 330.2842400074005, 338.01000785827637, 342.5638349056244, 350.5401859283447, 357.06386494636536, 364.8539319038391, 372.845675945282, 381.58795189857483, 390.28149485588074, 405.4472210407257, 412.8555190563202, 419.8957438468933, 427.4527819156647, 435.6278860569, 450.42778992652893, 458.7702810764313, 466.8450050354004, 475.5372438430786, 481.02639985084534, 485.38163590431213, 495.89109992980957, 503.19998598098755, 517.5637419223785, 526.856675863266, 535.1334090232849, 542.4573390483856, 548.9300758838654, 554.9204120635986, 559.0570678710938, 565.5650260448456, 571.2031679153442, 577.1593520641327, 581.7143259048462, 590.0909168720245, 596.2806529998779]",space,2.27081394196,,,2017_Jul_18_1058,59.9459467958,DRL_task,1,103,
5,0,5,0,,,6.85247993469,328,1,6,3062.40264702,5,,,,,,,2017_Jul_18_1058,59.9459467958,DRL_task,1,103,
5,0,5,0,,,5.82424688339,329,2,6,3068.24194217,5,,,,,,,2017_Jul_18_1058,59.9459467958,DRL_task,1,103,
5,0,5,0,,,5.32077598572,330,3,6,3073.54762912,5,,,,,,,2017_Jul_18_1058,59.9459467958,DRL_task,1,103,
5,0,5,0,,,12.7802050114,331,4,6,3086.32748914,5,,,,,,,2017_Jul_18_1058,59.9459467958,DRL_task,1,103,
5,0,5,0,,,6.04078507423,332,5,6,3092.384058,5,,,,,,,2017_Jul_18_1058,59.9459467958,DRL_task,1,103,
5,0,5,0,,,6.08953094482,333,6,6,3098.47377896,5,,,,,,,2017_Jul_18_1058,59.9459467958,DRL_task,1,103,
5,0,5,0,,,5.33884906769,334,7,6,3103.81270003,5,,,,,,,2017_Jul_18_1058,59.9459467958,DRL_task,1,103,
5,0,5,0,,,7.27470993996,335,8,6,3111.08697414,5,,,,,,,2017_Jul_18_1058,59.9459467958,DRL_task,1,103,
5,0,5,0,,,5.00393104553,336,9,6,3116.0922451,5,,,,,,,2017_Jul_18_1058,59.9459467958,DRL_task,1,103,
5,0,5,0,,,5.34003591537,337,10,6,3121.431144,5,,,,,,,2017_Jul_18_1058,59.9459467958,DRL_task,1,103,
5,0,5,0,,,5.35449409485,338,11,6,3126.78658795,5,,,,,,,2017_Jul_18_1058,59.9459467958,DRL_task,1,103,
5,0,5,0,,,3.90400695801,338,12,6,3130.6739831,5,,,,,,,2017_Jul_18_1058,59.9459467958,DRL_task,1,103,
5,0,5,0,,,5.60739803314,339,13,6,3136.32968616,5,,,,,,,2017_Jul_18_1058,59.9459467958,DRL_task,1,103,
5,0,5,0,,,3.80248093605,339,14,6,3140.08403301,5,,,,,,,2017_Jul_18_1058,59.9459467958,DRL_task,1,103,
5,0,5,0,,,3.92216706276,339,15,6,3144.02165103,5,,,,,,,2017_Jul_18_1058,59.9459467958,DRL_task,1,103,
5,0,5,0,,,6.32343912125,340,16,6,3150.34466314,5,,,,,,,2017_Jul_18_1058,59.9459467958,DRL_task,1,103,
5,0,5,0,,,4.58651995659,340,17,6,3154.93294597,5,,,,,,,2017_Jul_18_1058,59.9459467958,DRL_task,1,103,
5,0,5,0,,,12.7967689037,341,18,6,3167.72967601,5,,,,,,,2017_Jul_18_1058,59.9459467958,DRL_task,1,103,
5,0,5,0,,,10.9292089939,342,19,6,3178.65781903,5,,,,,,,2017_Jul_18_1058,59.9459467958,DRL_task,1,103,
5,0,5,0,,,5.22239899635,343,20,6,3183.88001895,5,,,,,,,2017_Jul_18_1058,59.9459467958,DRL_task,1,103,
5,0,5,0,,,7.87355899811,344,21,6,3191.73813796,5,,,,,,,2017_Jul_18_1058,59.9459467958,DRL_task,1,103,
5,0,5,0,,,5.92304611206,345,22,6,3197.66107416,5,,,,,,,2017_Jul_18_1058,59.9459467958,DRL_task,1,103,
5,0,5,0,,,5.75728988647,346,23,6,3203.43379211,5,,,,,,,2017_Jul_18_1058,59.9459467958,DRL_task,1,103,
5,0,5,0,,,6.59027099609,347,24,6,3210.02409601,5,,,,,,,2017_Jul_18_1058,59.9459467958,DRL_task,1,103,
5,0,5,0,,,11.0102460384,348,25,6,3221.03537512,5,,,,,,,2017_Jul_18_1058,59.9459467958,DRL_task,1,103,
5,0,5,0,,,5.80594611168,349,26,6,3226.84171009,5,,,,,,,2017_Jul_18_1058,59.9459467958,DRL_task,1,103,
5,0,5,0,,,4.50467586517,349,27,6,3231.34633803,5,,,,,,,2017_Jul_18_1058,59.9459467958,DRL_task,1,103,
5,0,5,0,,,6.25810813904,350,28,6,3237.60284615,5,,,,,,,2017_Jul_18_1058,59.9459467958,DRL_task,1,103,
5,0,5,0,,,7.43968987465,351,29,6,3245.04403114,5,,,,,,,2017_Jul_18_1058,59.9459467958,DRL_task,1,103,
5,0,5,0,,,6.67488098145,352,30,6,3251.71768713,5,,,,,,,2017_Jul_18_1058,59.9459467958,DRL_task,1,103,
5,0,5,0,,,5.75638103485,353,31,6,3257.47360396,5,,,,,,,2017_Jul_18_1058,59.9459467958,DRL_task,1,103,
5,0,5,0,,,3.98585700989,353,32,6,3261.46126699,5,,,,,,,2017_Jul_18_1058,59.9459467958,DRL_task,1,103,
5,0,5,0,,,0.685652017593,353,33,6,3262.14512205,5,,,,,,,2017_Jul_18_1058,59.9459467958,DRL_task,1,103,
5,0,5,0,,,4.93835091591,353,34,6,3267.083637,5,,,,,,,2017_Jul_18_1058,59.9459467958,DRL_task,1,103,
5,0,5,0,,,9.75897908211,354,35,6,3276.84389496,5,,,,,,,2017_Jul_18_1058,59.9459467958,DRL_task,1,103,
5,0,5,0,,,5.85737490654,355,36,6,3282.70025611,5,,,,,,,2017_Jul_18_1058,59.9459467958,DRL_task,1,103,
5,0,5,0,,,7.9070751667,356,37,6,3290.608253,5,,,,,,,2017_Jul_18_1058,59.9459467958,DRL_task,1,103,
5,0,5,0,,,6.62439584732,357,38,6,3297.2320981,5,,,,,,,2017_Jul_18_1058,59.9459467958,DRL_task,1,103,
5,0,5,0,,,7.54036712646,358,39,6,3304.77319002,5,,,,,,,2017_Jul_18_1058,59.9459467958,DRL_task,1,103,
5,0,5,0,,,7.49101281166,359,40,6,3312.26446295,5,,,,,,,2017_Jul_18_1058,59.9459467958,DRL_task,1,103,
5,0,5,0,,,9.29322600365,360,41,6,3321.55721903,5,,,,,,,2017_Jul_18_1058,59.9459467958,DRL_task,1,103,
5,0,5,0,,,11.9805960655,361,42,6,3333.53661203,5,,,,,,,2017_Jul_18_1058,59.9459467958,DRL_task,1,103,
5,0,5,0,,,13.1123559475,362,43,6,3346.65034008,5,,,,,,,2017_Jul_18_1058,59.9459467958,DRL_task,1,103,
5,0,5,0,,,5.87283611298,363,44,6,3352.52283597,5,,,,,,,2017_Jul_18_1058,59.9459467958,DRL_task,1,103,
5,0,5,0,,,4.83948588371,363,45,6,3357.36153698,5,,,,,,,2017_Jul_18_1058,59.9459467958,DRL_task,1,103,
5,0,5,0,,,11.5122690201,364,46,6,3368.87375903,5,,,,,,,2017_Jul_18_1058,59.9459467958,DRL_task,1,103,
5,0,5,0,,,10.0438570976,365,47,6,3378.91760898,5,,,,,,,2017_Jul_18_1058,59.9459467958,DRL_task,1,103,
5,0,5,0,,,5.77135109901,366,48,6,3384.69033813,5,,,,,,,2017_Jul_18_1058,59.9459467958,DRL_task,1,103,
5,0,5,0,,,8.84381389618,367,49,6,3393.53295398,5,,,,,,,2017_Jul_18_1058,59.9459467958,DRL_task,1,103,
5,0,5,0,,,6.80701804161,368,50,6,3400.34005499,5,,,,,,,2017_Jul_18_1058,59.9459467958,DRL_task,1,103,
5,0,5,0,,,12.8639030457,369,51,6,3413.20356798,5,,,,,,,2017_Jul_18_1058,59.9459467958,DRL_task,1,103,
5,0,5,0,,,0.199131965637,369,52,6,3413.40377498,5,,,,,,,2017_Jul_18_1058,59.9459467958,DRL_task,1,103,
5,0,5,0,,,8.19246888161,370,53,6,3421.59565806,5,,,,,,,2017_Jul_18_1058,59.9459467958,DRL_task,1,103,
5,0,5,0,,,9.57711005211,371,54,6,3431.17229605,5,,,,,,,2017_Jul_18_1058,59.9459467958,DRL_task,1,103,
5,0,5,0,,,5.689234972,372,55,6,3436.86179614,5,,,,,,,2017_Jul_18_1058,59.9459467958,DRL_task,1,103,
5,0,5,0,,,4.5034070015,372,56,6,3441.36624193,5,,,,,,,2017_Jul_18_1058,59.9459467958,DRL_task,1,103,
5,0,5,0,,,5.69061112404,373,57,6,3447.05570006,5,,,,,,,2017_Jul_18_1058,59.9459467958,DRL_task,1,103,
5,0,5,0,,,5.42253494263,374,58,6,3452.477916,5,,,,,,,2017_Jul_18_1058,59.9459467958,DRL_task,1,103,
5,0,5,0,,,5.27189803123,375,59,6,3457.75020099,5,,,,,,,2017_Jul_18_1058,59.9459467958,DRL_task,1,103,
5,0,5,0,,,6.42352104187,376,60,6,3464.17362499,5,,,,,,,2017_Jul_18_1058,59.9459467958,DRL_task,1,103,
5,0,5,0,,,8.49272799492,377,61,6,3472.66566014,5,,,,,,,2017_Jul_18_1058,59.9459467958,DRL_task,1,103,
5,0,5,0,,,17.534678936,378,62,6,3490.20089793,5,,,,,,,2017_Jul_18_1058,59.9459467958,DRL_task,1,103,
5,0,5,0,,,8.20829606056,379,63,6,3498.40948009,5,,,,,,,2017_Jul_18_1058,59.9459467958,DRL_task,1,103,
5,0,5,0,,,8.92434096336,380,64,6,3507.33548808,5,,,,,,,2017_Jul_18_1058,59.9459467958,DRL_task,1,103,
5,0,5,0,,,6.95906496048,381,65,6,3514.29263902,5,,,,,,,2017_Jul_18_1058,59.9459467958,DRL_task,1,103,
5,0,5,0,,,9.47679686546,382,66,6,3523.76930904,5,,,,,,,2017_Jul_18_1058,59.9459467958,DRL_task,1,103,
5,0,5,0,,,6.5732281208,383,67,6,3530.34300709,5,,,,,,,2017_Jul_18_1058,59.9459467958,DRL_task,1,103,
5,0,5,0,,,4.68844509125,383,68,6,3535.03103113,5,,,,,,,2017_Jul_18_1058,59.9459467958,DRL_task,1,103,
5,0,5,0,,,4.27135491371,383,69,6,3539.30201101,5,,,,,,,2017_Jul_18_1058,59.9459467958,DRL_task,1,103,
5,0,5,0,,,13.3472321033,384,70,6,3552.64924693,5,,,,,,,2017_Jul_18_1058,59.9459467958,DRL_task,1,103,
5,0,5,0,,,11.8441879749,385,71,6,3564.49557495,5,,,,,,,2017_Jul_18_1058,59.9459467958,DRL_task,1,103,
5,0,5,0,,,16.8526229858,386,72,6,3581.34622812,5,,,,,,,2017_Jul_18_1058,59.9459467958,DRL_task,1,103,
5,0,5,0,,,5.43864989281,387,73,6,3586.78548098,5,,,,,,,2017_Jul_18_1058,59.9459467958,DRL_task,1,103,
5,0,5,0,,,4.05302000046,387,74,6,3590.83978605,5,,,,,,,2017_Jul_18_1058,59.9459467958,DRL_task,1,103,
5,0,5,0,,,6.34117603302,388,75,6,3597.17978215,5,,,,,,,2017_Jul_18_1058,59.9459467958,DRL_task,1,103,
5,0,5,0,,,6.7741830349,389,76,6,3603.95332813,5,,,,,,,2017_Jul_18_1058,59.9459467958,DRL_task,1,103,
5,0,5,0,,,5.17185306549,390,77,6,3609.12565303,5,,,,,,,2017_Jul_18_1058,59.9459467958,DRL_task,1,103,
5,0,5,0,,,3.91935181618,390,78,6,3613.04633498,5,,,,,,,2017_Jul_18_1058,59.9459467958,DRL_task,1,103,
5,0,5,0,,,3.63880515099,390,79,6,3616.68327594,5,,,,,,,2017_Jul_18_1058,59.9459467958,DRL_task,1,103,
5,0,5,0,,,5.07049584389,391,80,6,3621.75532293,5,,,,,,,2017_Jul_18_1058,59.9459467958,DRL_task,1,103,
5,0,5,0,,,3.83867907524,391,81,6,3625.59277296,5,,,,,,,2017_Jul_18_1058,59.9459467958,DRL_task,1,103,
5,0,5,0,,,4.16983795166,391,82,6,3629.76337194,5,,,,,,,2017_Jul_18_1058,59.9459467958,DRL_task,1,103,
5,0,5,0,,,4.40601611137,391,83,6,3634.1683321,5,,,,,,,2017_Jul_18_1058,59.9459467958,DRL_task,1,103,
5,0,5,0,,,4.93711495399,391,84,6,3639.10682607,5,,,,,,,2017_Jul_18_1058,59.9459467958,DRL_task,1,103,
5,0,5,0,,,5.72403907776,392,85,6,3644.82950997,5,,,,,,,2017_Jul_18_1058,59.9459467958,DRL_task,1,103,
5,0,5,0,,,7.37421989441,393,86,6,3652.20409608,5,,,,,,,2017_Jul_18_1058,59.9459467958,DRL_task,1,103,
5,0,5,0,,,,,,,,,"['space', 'space', 'space', 'space', 'space', 'space', 'space', 'space', 'space', 'space', 'space', 'space', 'space', 'space', 'space', 'space', 'space', 'space', 'space', 'space', 'space', 'space', 'space', 'space', 'space', 'space', 'space', 'space', 'space', 'space', 'space', 'space', 'space', 'space', 'space', 'space', 'space', 'space', 'space', 'space', 'space', 'space', 'space', 'space', 'space', 'space', 'space', 'space', 'space', 'space', 'space', 'space', 'space', 'space', 'space', 'space', 'space', 'space', 'space', 'space', 'space', 'space', 'space', 'space', 'space', 'space', 'space', 'space', 'space', 'space', 'space', 'space', 'space', 'space', 'space', 'space', 'space', 'space', 'space', 'space', 'space', 'space', 'space', 'space', 'space', 'space']","[6.852479934692383, 12.676726818084717, 17.99750280380249, 30.777707815170288, 36.8184928894043, 42.908023834228516, 48.246872901916504, 55.52158284187317, 60.525513887405396, 65.86554980278015, 71.22004389762878, 75.1240508556366, 80.73144888877869, 84.5339298248291, 88.4560968875885, 94.77953600883484, 99.36605596542358, 112.16282486915588, 123.09203386306763, 128.31443285942078, 136.1879918575287, 142.11103796958923, 147.86832785606384, 154.4585988521576, 165.46884489059448, 171.27479100227356, 175.7794668674469, 182.03757500648499, 189.47726488113403, 196.15214586257935, 201.90852689743042, 205.89438390731812, 206.5800359249115, 211.5183868408203, 221.27736592292786, 227.13474082946777, 235.04181599617004, 241.6662118434906, 249.20657896995544, 256.6975917816162, 265.99081778526306, 277.9714138507843, 291.0837697982788, 296.9566059112549, 301.79609179496765, 313.3083608150482, 323.35221791267395, 329.12356901168823, 337.96738290786743, 344.77440094947815, 357.63830399513245, 357.83743596076965, 366.0299048423767, 375.6070148944855, 381.2962498664856, 385.79965686798096, 391.49026799201965, 396.9128029346466, 402.18470096588135, 408.60822200775146, 417.1009500026703, 434.6356289386749, 442.84392499923706, 451.7682659626007, 458.72733092308044, 468.2041277885437, 474.77735590934753, 479.4658010005951, 483.73715591430664, 497.0843880176544, 508.92857599258423, 525.7811989784241, 531.2198488712311, 535.2728688716888, 541.6140449047089, 548.3882279396057, 553.5600810050964, 557.4794328212738, 561.1182379722595, 566.1887338161469, 570.0274128913879, 574.1972508430481, 578.603266954422, 583.5403819084167, 589.2644209861755, 596.6386408805847]",space,2.75447201729,,,2017_Jul_18_1058,59.9459467958,DRL_task,1,103,
,,,,,,,,,,,,,,,,space,2.37094211578,2017_Jul_18_1058,59.9459467958,DRL_task,1,103,
