experiment.thisRepN,experiment.thisTrialN,experiment.thisN,experiment.thisIndex,instructions_key.keys,instructions_key.rt,rt,score,response_number,block_number,time,interval,response.keys,response.rt,break_key.keys,break_key.rt,closing_key.keys,closing_key.rt,date,frameRate,expName,session,participant,
,,,,space,3.2200551033,,,,,,,,,,,,,2017_Jul_18_1243,59.9057060548,DRL_task,1,104,
0,0,0,0,,,0.00306987762451,0,1,1,4.44500303268,5,,,,,,,2017_Jul_18_1243,59.9057060548,DRL_task,1,104,
0,0,0,0,,,16.5617389679,1,2,1,20.9959690571,5,,,,,,,2017_Jul_18_1243,59.9057060548,DRL_task,1,104,
0,0,0,0,,,8.95921015739,2,3,1,29.9550600052,5,,,,,,,2017_Jul_18_1243,59.9057060548,DRL_task,1,104,
0,0,0,0,,,3.88707089424,2,4,1,33.8423850536,5,,,,,,,2017_Jul_18_1243,59.9057060548,DRL_task,1,104,
0,0,0,0,,,0.350109100342,2,5,1,34.1925909519,5,,,,,,,2017_Jul_18_1243,59.9057060548,DRL_task,1,104,
0,0,0,0,,,0.851148843765,2,6,1,35.043585062,5,,,,,,,2017_Jul_18_1243,59.9057060548,DRL_task,1,104,
0,0,0,0,,,3.57014513016,2,7,1,38.6137480736,5,,,,,,,2017_Jul_18_1243,59.9057060548,DRL_task,1,104,
0,0,0,0,,,2.78478503227,2,8,1,41.3997910023,5,,,,,,,2017_Jul_18_1243,59.9057060548,DRL_task,1,104,
0,0,0,0,,,2.9875638485,2,9,1,44.3862519264,5,,,,,,,2017_Jul_18_1243,59.9057060548,DRL_task,1,104,
0,0,0,0,,,3.48566198349,2,10,1,47.8729879856,5,,,,,,,2017_Jul_18_1243,59.9057060548,DRL_task,1,104,
0,0,0,0,,,6.47466111183,3,11,1,54.3461039066,5,,,,,,,2017_Jul_18_1243,59.9057060548,DRL_task,1,104,
0,0,0,0,,,5.70537400246,4,12,1,60.0517289639,5,,,,,,,2017_Jul_18_1243,59.9057060548,DRL_task,1,104,
0,0,0,0,,,4.20414590836,4,13,1,64.2561590672,5,,,,,,,2017_Jul_18_1243,59.9057060548,DRL_task,1,104,
0,0,0,0,,,3.88741707802,4,14,1,68.1434650421,5,,,,,,,2017_Jul_18_1243,59.9057060548,DRL_task,1,104,
0,0,0,0,,,5.90599489212,5,15,1,74.0492999554,5,,,,,,,2017_Jul_18_1243,59.9057060548,DRL_task,1,104,
0,0,0,0,,,5.13811612129,6,16,1,79.187844038,5,,,,,,,2017_Jul_18_1243,59.9057060548,DRL_task,1,104,
0,0,0,0,,,4.85377883911,6,17,1,84.0424320698,5,,,,,,,2017_Jul_18_1243,59.9057060548,DRL_task,1,104,
0,0,0,0,,,4.43933701515,6,18,1,88.4802360535,5,,,,,,,2017_Jul_18_1243,59.9057060548,DRL_task,1,104,
0,0,0,0,,,5.93944406509,7,19,1,94.4196169376,5,,,,,,,2017_Jul_18_1243,59.9057060548,DRL_task,1,104,
0,0,0,0,,,4.95452809334,7,20,1,99.3747000694,5,,,,,,,2017_Jul_18_1243,59.9057060548,DRL_task,1,104,
0,0,0,0,,,5.50437092781,8,21,1,104.880125999,5,,,,,,,2017_Jul_18_1243,59.9057060548,DRL_task,1,104,
0,0,0,0,,,5.83911800385,9,22,1,110.719103098,5,,,,,,,2017_Jul_18_1243,59.9057060548,DRL_task,1,104,
0,0,0,0,,,6.68995809555,10,23,1,117.409753084,5,,,,,,,2017_Jul_18_1243,59.9057060548,DRL_task,1,104,
0,0,0,0,,,5.97266101837,11,24,1,123.382138014,5,,,,,,,2017_Jul_18_1243,59.9057060548,DRL_task,1,104,
0,0,0,0,,,6.42466187477,12,25,1,129.805218935,5,,,,,,,2017_Jul_18_1243,59.9057060548,DRL_task,1,104,
0,0,0,0,,,6.57325291634,13,26,1,136.378458023,5,,,,,,,2017_Jul_18_1243,59.9057060548,DRL_task,1,104,
0,0,0,0,,,5.7208981514,14,27,1,142.100552082,5,,,,,,,2017_Jul_18_1243,59.9057060548,DRL_task,1,104,
0,0,0,0,,,4.78964090347,14,28,1,146.889095068,5,,,,,,,2017_Jul_18_1243,59.9057060548,DRL_task,1,104,
0,0,0,0,,,6.62363100052,15,29,1,153.512356997,5,,,,,,,2017_Jul_18_1243,59.9057060548,DRL_task,1,104,
0,0,0,0,,,5.22163105011,16,30,1,158.734464884,5,,,,,,,2017_Jul_18_1243,59.9057060548,DRL_task,1,104,
0,0,0,0,,,4.08757209778,16,31,1,162.821719885,5,,,,,,,2017_Jul_18_1243,59.9057060548,DRL_task,1,104,
0,0,0,0,,,0.298891782761,16,32,1,163.122072935,5,,,,,,,2017_Jul_18_1243,59.9057060548,DRL_task,1,104,
0,0,0,0,,,3.80529403687,16,33,1,166.925855875,5,,,,,,,2017_Jul_18_1243,59.9057060548,DRL_task,1,104,
0,0,0,0,,,4.50462198257,16,34,1,171.430438995,5,,,,,,,2017_Jul_18_1243,59.9057060548,DRL_task,1,104,
0,0,0,0,,,5.57203507423,17,35,1,177.002753973,5,,,,,,,2017_Jul_18_1243,59.9057060548,DRL_task,1,104,
0,0,0,0,,,6.00477600098,18,36,1,183.008774042,5,,,,,,,2017_Jul_18_1243,59.9057060548,DRL_task,1,104,
0,0,0,0,,,5.79049301147,19,37,1,188.798182011,5,,,,,,,2017_Jul_18_1243,59.9057060548,DRL_task,1,104,
0,0,0,0,,,5.23865795135,20,38,1,194.036364079,5,,,,,,,2017_Jul_18_1243,59.9057060548,DRL_task,1,104,
0,0,0,0,,,4.1861770153,20,39,1,198.223901987,5,,,,,,,2017_Jul_18_1243,59.9057060548,DRL_task,1,104,
0,0,0,0,,,0.234684944153,20,40,1,198.457803011,5,,,,,,,2017_Jul_18_1243,59.9057060548,DRL_task,1,104,
0,0,0,0,,,5.58762717247,21,41,1,204.046815872,5,,,,,,,2017_Jul_18_1243,59.9057060548,DRL_task,1,104,
0,0,0,0,,,6.29144787788,22,42,1,210.336327076,5,,,,,,,2017_Jul_18_1243,59.9057060548,DRL_task,1,104,
0,0,0,0,,,6.48992204666,23,43,1,216.826240063,5,,,,,,,2017_Jul_18_1243,59.9057060548,DRL_task,1,104,
0,0,0,0,,,5.87256097794,24,44,1,222.698909998,5,,,,,,,2017_Jul_18_1243,59.9057060548,DRL_task,1,104,
0,0,0,0,,,6.03944993019,25,45,1,228.738266945,5,,,,,,,2017_Jul_18_1243,59.9057060548,DRL_task,1,104,
0,0,0,0,,,6.40608811378,26,46,1,235.144941092,5,,,,,,,2017_Jul_18_1243,59.9057060548,DRL_task,1,104,
0,0,0,0,,,5.88956093788,27,47,1,241.034054995,5,,,,,,,2017_Jul_18_1243,59.9057060548,DRL_task,1,104,
0,0,0,0,,,6.23830199242,28,48,1,247.273742914,5,,,,,,,2017_Jul_18_1243,59.9057060548,DRL_task,1,104,
0,0,0,0,,,5.92428398132,29,49,1,253.196402073,5,,,,,,,2017_Jul_18_1243,59.9057060548,DRL_task,1,104,
0,0,0,0,,,6.47367501259,30,50,1,259.669766903,5,,,,,,,2017_Jul_18_1243,59.9057060548,DRL_task,1,104,
0,0,0,0,,,6.40436005592,31,51,1,266.075640917,5,,,,,,,2017_Jul_18_1243,59.9057060548,DRL_task,1,104,
0,0,0,0,,,8.15783810616,32,52,1,274.234540939,5,,,,,,,2017_Jul_18_1243,59.9057060548,DRL_task,1,104,
0,0,0,0,,,8.25997591019,33,53,1,282.492848873,5,,,,,,,2017_Jul_18_1243,59.9057060548,DRL_task,1,104,
0,0,0,0,,,1.25112700462,33,54,1,283.744102001,5,,,,,,,2017_Jul_18_1243,59.9057060548,DRL_task,1,104,
0,0,0,0,,,3.65413498878,33,55,1,287.397842884,5,,,,,,,2017_Jul_18_1243,59.9057060548,DRL_task,1,104,
0,0,0,0,,,2.7359559536,33,56,1,290.133943081,5,,,,,,,2017_Jul_18_1243,59.9057060548,DRL_task,1,104,
0,0,0,0,,,4.13738203049,33,57,1,294.271465063,5,,,,,,,2017_Jul_18_1243,59.9057060548,DRL_task,1,104,
0,0,0,0,,,6.2899620533,34,58,1,300.561156034,5,,,,,,,2017_Jul_18_1243,59.9057060548,DRL_task,1,104,
0,0,0,0,,,5.20358490944,35,59,1,305.766553879,5,,,,,,,2017_Jul_18_1243,59.9057060548,DRL_task,1,104,
0,0,0,0,,,6.92515492439,36,60,1,312.690037966,5,,,,,,,2017_Jul_18_1243,59.9057060548,DRL_task,1,104,
0,0,0,0,,,1.61849808693,36,61,1,314.308538914,5,,,,,,,2017_Jul_18_1243,59.9057060548,DRL_task,1,104,
0,0,0,0,,,2.9179649353,36,62,1,317.228142023,5,,,,,,,2017_Jul_18_1243,59.9057060548,DRL_task,1,104,
0,0,0,0,,,4.80663514137,36,63,1,322.032998085,5,,,,,,,2017_Jul_18_1243,59.9057060548,DRL_task,1,104,
0,0,0,0,,,0.198603868484,36,64,1,322.233238935,5,,,,,,,2017_Jul_18_1243,59.9057060548,DRL_task,1,104,
0,0,0,0,,,3.27147507668,36,65,1,325.503321886,5,,,,,,,2017_Jul_18_1243,59.9057060548,DRL_task,1,104,
0,0,0,0,,,1.0663819313,36,66,1,326.570827007,5,,,,,,,2017_Jul_18_1243,59.9057060548,DRL_task,1,104,
0,0,0,0,,,2.65383505821,36,67,1,329.223500013,5,,,,,,,2017_Jul_18_1243,59.9057060548,DRL_task,1,104,
0,0,0,0,,,1.91749691963,36,68,1,331.142119884,5,,,,,,,2017_Jul_18_1243,59.9057060548,DRL_task,1,104,
0,0,0,0,,,4.73913598061,36,69,1,335.880409002,5,,,,,,,2017_Jul_18_1243,59.9057060548,DRL_task,1,104,
0,0,0,0,,,7.08951115608,37,70,1,342.970747948,5,,,,,,,2017_Jul_18_1243,59.9057060548,DRL_task,1,104,
0,0,0,0,,,1.23590302467,37,71,1,344.205276012,5,,,,,,,2017_Jul_18_1243,59.9057060548,DRL_task,1,104,
0,0,0,0,,,0.367390871048,37,72,1,344.572382927,5,,,,,,,2017_Jul_18_1243,59.9057060548,DRL_task,1,104,
0,0,0,0,,,0.266283988953,37,73,1,344.839468956,5,,,,,,,2017_Jul_18_1243,59.9057060548,DRL_task,1,104,
0,0,0,0,,,3.38704299927,37,74,1,348.226155996,5,,,,,,,2017_Jul_18_1243,59.9057060548,DRL_task,1,104,
0,0,0,0,,,4.7533800602,37,75,1,352.981158972,5,,,,,,,2017_Jul_18_1243,59.9057060548,DRL_task,1,104,
0,0,0,0,,,0.550862073898,37,76,1,353.531550884,5,,,,,,,2017_Jul_18_1243,59.9057060548,DRL_task,1,104,
0,0,0,0,,,10.1784749031,38,77,1,363.70856905,5,,,,,,,2017_Jul_18_1243,59.9057060548,DRL_task,1,104,
0,0,0,0,,,6.18944692612,39,78,1,369.898348093,5,,,,,,,2017_Jul_18_1243,59.9057060548,DRL_task,1,104,
0,0,0,0,,,5.23844718933,40,79,1,375.136976004,5,,,,,,,2017_Jul_18_1243,59.9057060548,DRL_task,1,104,
0,0,0,0,,,5.83795690536,41,80,1,380.976276875,5,,,,,,,2017_Jul_18_1243,59.9057060548,DRL_task,1,104,
0,0,0,0,,,6.4916601181,42,81,1,387.466099977,5,,,,,,,2017_Jul_18_1243,59.9057060548,DRL_task,1,104,
0,0,0,0,,,5.88895583153,43,82,1,393.355499029,5,,,,,,,2017_Jul_18_1243,59.9057060548,DRL_task,1,104,
0,0,0,0,,,5.27210712433,44,83,1,398.627547979,5,,,,,,,2017_Jul_18_1243,59.9057060548,DRL_task,1,104,
0,0,0,0,,,5.45579385757,45,84,1,404.082985878,5,,,,,,,2017_Jul_18_1243,59.9057060548,DRL_task,1,104,
0,0,0,0,,,5.37227296829,46,85,1,409.455097914,5,,,,,,,2017_Jul_18_1243,59.9057060548,DRL_task,1,104,
0,0,0,0,,,5.37049913406,47,86,1,414.827257872,5,,,,,,,2017_Jul_18_1243,59.9057060548,DRL_task,1,104,
0,0,0,0,,,5.34037804604,48,87,1,420.16602397,5,,,,,,,2017_Jul_18_1243,59.9057060548,DRL_task,1,104,
0,0,0,0,,,4.82108688354,48,88,1,425.004396915,5,,,,,,,2017_Jul_18_1243,59.9057060548,DRL_task,1,104,
0,0,0,0,,,7.39093995094,49,89,1,432.378661871,5,,,,,,,2017_Jul_18_1243,59.9057060548,DRL_task,1,104,
0,0,0,0,,,7.52412009239,50,90,1,439.902968884,5,,,,,,,2017_Jul_18_1243,59.9057060548,DRL_task,1,104,
0,0,0,0,,,8.6744890213,51,91,1,448.578341007,5,,,,,,,2017_Jul_18_1243,59.9057060548,DRL_task,1,104,
0,0,0,0,,,8.07657003403,52,92,1,456.653214931,5,,,,,,,2017_Jul_18_1243,59.9057060548,DRL_task,1,104,
0,0,0,0,,,6.72186994553,53,93,1,463.376745939,5,,,,,,,2017_Jul_18_1243,59.9057060548,DRL_task,1,104,
0,0,0,0,,,3.40467596054,53,94,1,466.780219078,5,,,,,,,2017_Jul_18_1243,59.9057060548,DRL_task,1,104,
0,0,0,0,,,0.283713102341,53,95,1,467.063930988,5,,,,,,,2017_Jul_18_1243,59.9057060548,DRL_task,1,104,
0,0,0,0,,,0.534025907516,53,96,1,467.597807884,5,,,,,,,2017_Jul_18_1243,59.9057060548,DRL_task,1,104,
0,0,0,0,,,1.01598715782,53,97,1,468.61561203,5,,,,,,,2017_Jul_18_1243,59.9057060548,DRL_task,1,104,
0,0,0,0,,,0.318623781204,53,98,1,468.932615995,5,,,,,,,2017_Jul_18_1243,59.9057060548,DRL_task,1,104,
0,0,0,0,,,3.70381999016,53,99,1,472.636538029,5,,,,,,,2017_Jul_18_1243,59.9057060548,DRL_task,1,104,
0,0,0,0,,,4.20433712006,53,100,1,476.840775013,5,,,,,,,2017_Jul_18_1243,59.9057060548,DRL_task,1,104,
0,0,0,0,,,6.43997192383,54,101,1,483.280679941,5,,,,,,,2017_Jul_18_1243,59.9057060548,DRL_task,1,104,
0,0,0,0,,,6.60499405861,55,102,1,489.887388945,5,,,,,,,2017_Jul_18_1243,59.9057060548,DRL_task,1,104,
0,0,0,0,,,7.50924992561,56,103,1,497.395063877,5,,,,,,,2017_Jul_18_1243,59.9057060548,DRL_task,1,104,
0,0,0,0,,,11.026692152,57,104,1,508.422969103,5,,,,,,,2017_Jul_18_1243,59.9057060548,DRL_task,1,104,
0,0,0,0,,,7.60773897171,58,105,1,516.030860901,5,,,,,,,2017_Jul_18_1243,59.9057060548,DRL_task,1,104,
0,0,0,0,,,7.47576093674,59,106,1,523.504951,5,,,,,,,2017_Jul_18_1243,59.9057060548,DRL_task,1,104,
0,0,0,0,,,0.231987953186,59,107,1,523.738581896,5,,,,,,,2017_Jul_18_1243,59.9057060548,DRL_task,1,104,
0,0,0,0,,,0.868981122971,59,108,1,524.606021881,5,,,,,,,2017_Jul_18_1243,59.9057060548,DRL_task,1,104,
0,0,0,0,,,9.37656092644,60,109,1,533.982584953,5,,,,,,,2017_Jul_18_1243,59.9057060548,DRL_task,1,104,
0,0,0,0,,,7.52396798134,61,110,1,541.523566961,5,,,,,,,2017_Jul_18_1243,59.9057060548,DRL_task,1,104,
0,0,0,0,,,12.2944390774,62,111,1,553.802725077,5,,,,,,,2017_Jul_18_1243,59.9057060548,DRL_task,1,104,
0,0,0,0,,,0.251000881195,62,112,1,554.053107023,5,,,,,,,2017_Jul_18_1243,59.9057060548,DRL_task,1,104,
0,0,0,0,,,6.62465715408,63,113,1,560.676362991,5,,,,,,,2017_Jul_18_1243,59.9057060548,DRL_task,1,104,
0,0,0,0,,,7.82305693626,64,114,1,568.500957012,5,,,,,,,2017_Jul_18_1243,59.9057060548,DRL_task,1,104,
0,0,0,0,,,4.97163009644,64,115,1,573.472797871,5,,,,,,,2017_Jul_18_1243,59.9057060548,DRL_task,1,104,
0,0,0,0,,,6.77379393578,65,116,1,580.246273994,5,,,,,,,2017_Jul_18_1243,59.9057060548,DRL_task,1,104,
0,0,0,0,,,5.92250084877,66,117,1,586.1692729,5,,,,,,,2017_Jul_18_1243,59.9057060548,DRL_task,1,104,
0,0,0,0,,,6.15790104866,67,118,1,592.325443983,5,,,,,,,2017_Jul_18_1243,59.9057060548,DRL_task,1,104,
0,0,0,0,,,7.17203211784,68,119,1,599.49928689,5,,,,,,,2017_Jul_18_1243,59.9057060548,DRL_task,1,104,
0,0,0,0,,,,,,,,,"['space', 'space', 'space', 'space', 'space', 'space', 'space', 'space', 'space', 'space', 'space', 'space', 'space', 'space', 'space', 'space', 'space', 'space', 'space', 'space', 'space', 'space', 'space', 'space', 'space', 'space', 'space', 'space', 'space', 'space', 'space', 'space', 'space', 'space', 'space', 'space', 'space', 'space', 'space', 'space', 'space', 'space', 'space', 'space', 'space', 'space', 'space', 'space', 'space', 'space', 'space', 'space', 'space', 'space', 'space', 'space', 'space', 'space', 'space', 'space', 'space', 'space', 'space', 'space', 'space', 'space', 'space', 'space', 'space', 'space', 'space', 'space', 'space', 'space', 'space', 'space', 'space', 'space', 'space', 'space', 'space', 'space', 'space', 'space', 'space', 'space', 'space', 'space', 'space', 'space', 'space', 'space', 'space', 'space', 'space', 'space', 'space', 'space', 'space', 'space', 'space', 'space', 'space', 'space', 'space', 'space', 'space', 'space', 'space', 'space', 'space', 'space', 'space', 'space', 'space', 'space', 'space', 'space', 'space']","[0.0030698776245117188, 16.56480884552002, 25.52401900291443, 29.41108989715576, 29.76119899749756, 30.612347841262817, 34.18249297142029, 36.96727800369263, 39.95484185218811, 43.4405038356781, 49.915164947509766, 55.62053894996643, 59.824684858322144, 63.71210193634033, 69.6180968284607, 74.75621294975281, 79.60999178886414, 84.04932880401611, 89.98877286911011, 94.94330096244812, 100.44767189025879, 106.286789894104, 112.97674798965454, 118.94940900802612, 125.37407088279724, 131.9473237991333, 137.668221950531, 142.4578628540039, 149.0814938545227, 154.30312490463257, 158.3906970024109, 158.6895887851715, 162.49488282203674, 166.9995048046112, 172.57153987884521, 178.57631587982178, 184.3668088912964, 189.60546684265137, 193.79164385795593, 194.02632880210876, 199.61395597457886, 205.90540385246277, 212.39532589912415, 218.26788687705994, 224.30733680725098, 230.71342492103577, 236.60298585891724, 242.84128785133362, 248.76557183265686, 255.23924684524536, 261.6436069011688, 269.8014450073242, 278.061420917511, 279.3125479221344, 282.9666829109192, 285.7026388645172, 289.8400208950043, 296.1299829483032, 301.3335678577423, 308.258722782135, 309.87722086906433, 312.79518580436707, 317.60182094573975, 317.80042481422424, 321.07189989089966, 322.1382818222046, 324.79211688041687, 326.7096138000488, 331.4487497806549, 338.53826093673706, 339.7741639614105, 340.1415548324585, 340.40783882141113, 343.7948818206787, 348.54826188087463, 349.09912395477295, 359.27759885787964, 365.4670457839966, 370.70549297332764, 376.5434498786926, 383.03510999679565, 388.92406582832336, 394.196172952652, 399.65196681022644, 405.0242397785187, 410.3947389125824, 415.73511695861816, 420.5562038421631, 427.9471437931061, 435.47126388549805, 444.1457529067993, 452.2223229408264, 458.94419288635254, 462.3488688468933, 462.632581949234, 463.1666078567505, 464.18259501457214, 464.50121879577637, 468.20503878593445, 472.4093759059906, 478.8493478298187, 485.45434188842773, 492.96359181404114, 503.99028396606445, 511.59802293777466, 519.0737838745117, 519.3057718276978, 520.1747529506683, 529.5513138771057, 537.0752818584442, 549.3697209358215, 549.6207218170166, 556.2453789710999, 564.0684359073639, 569.0400660037994, 575.8138599395752, 581.7363607883453, 587.8942618370056, 595.0662939548492]",space,71.4723060131,,,2017_Jul_18_1243,59.9057060548,DRL_task,1,104,
1,0,1,0,,,5.23475599289,69,1,2,682.415981054,5,,,,,,,2017_Jul_18_1243,59.9057060548,DRL_task,1,104,
1,0,1,0,,,6.17290902138,70,2,2,688.588913918,5,,,,,,,2017_Jul_18_1243,59.9057060548,DRL_task,1,104,
1,0,1,0,,,5.4205429554,71,3,2,694.011281967,5,,,,,,,2017_Jul_18_1243,59.9057060548,DRL_task,1,104,
1,0,1,0,,,6.44134688377,72,4,2,700.451199055,5,,,,,,,2017_Jul_18_1243,59.9057060548,DRL_task,1,104,
1,0,1,0,,,7.29123997688,73,5,2,707.741697073,5,,,,,,,2017_Jul_18_1243,59.9057060548,DRL_task,1,104,
1,0,1,0,,,11.4783010483,74,6,2,719.219997883,5,,,,,,,2017_Jul_18_1243,59.9057060548,DRL_task,1,104,
1,0,1,0,,,8.44187617302,75,7,2,727.661916971,5,,,,,,,2017_Jul_18_1243,59.9057060548,DRL_task,1,104,
1,0,1,0,,,6.88989186287,76,8,2,734.552447081,5,,,,,,,2017_Jul_18_1243,59.9057060548,DRL_task,1,104,
1,0,1,0,,,0.684068918228,76,9,2,735.23632288,5,,,,,,,2017_Jul_18_1243,59.9057060548,DRL_task,1,104,
1,0,1,0,,,0.600750207901,76,10,2,735.836963892,5,,,,,,,2017_Jul_18_1243,59.9057060548,DRL_task,1,104,
1,0,1,0,,,7.05559492111,77,11,2,742.894267082,5,,,,,,,2017_Jul_18_1243,59.9057060548,DRL_task,1,104,
1,0,1,0,,,8.04148387909,78,12,2,750.935755014,5,,,,,,,2017_Jul_18_1243,59.9057060548,DRL_task,1,104,
1,0,1,0,,,7.14185404778,79,13,2,758.076389074,5,,,,,,,2017_Jul_18_1243,59.9057060548,DRL_task,1,104,
1,0,1,0,,,9.24292993546,80,14,2,767.319185972,5,,,,,,,2017_Jul_18_1243,59.9057060548,DRL_task,1,104,
1,0,1,0,,,7.13931417465,81,15,2,774.459810972,5,,,,,,,2017_Jul_18_1243,59.9057060548,DRL_task,1,104,
1,0,1,0,,,1.48664689064,81,16,2,775.944318056,5,,,,,,,2017_Jul_18_1243,59.9057060548,DRL_task,1,104,
1,0,1,0,,,6.25547909737,82,17,2,782.200890064,5,,,,,,,2017_Jul_18_1243,59.9057060548,DRL_task,1,104,
1,0,1,0,,,6.02331495285,83,18,2,788.223607063,5,,,,,,,2017_Jul_18_1243,59.9057060548,DRL_task,1,104,
1,0,1,0,,,7.04044795036,84,19,2,795.264132023,5,,,,,,,2017_Jul_18_1243,59.9057060548,DRL_task,1,104,
1,0,1,0,,,5.62253308296,85,20,2,800.886626959,5,,,,,,,2017_Jul_18_1243,59.9057060548,DRL_task,1,104,
1,0,1,0,,,3.96919894218,85,21,2,804.85720706,5,,,,,,,2017_Jul_18_1243,59.9057060548,DRL_task,1,104,
1,0,1,0,,,3.75523996353,85,22,2,808.610729933,5,,,,,,,2017_Jul_18_1243,59.9057060548,DRL_task,1,104,
1,0,1,0,,,6.27181601524,86,23,2,814.884130001,5,,,,,,,2017_Jul_18_1243,59.9057060548,DRL_task,1,104,
1,0,1,0,,,6.13951301575,87,24,2,821.023684025,5,,,,,,,2017_Jul_18_1243,59.9057060548,DRL_task,1,104,
1,0,1,0,,,5.60582113266,88,25,2,826.629365921,5,,,,,,,2017_Jul_18_1243,59.9057060548,DRL_task,1,104,
1,0,1,0,,,4.9716129303,88,26,2,831.601362944,5,,,,,,,2017_Jul_18_1243,59.9057060548,DRL_task,1,104,
1,0,1,0,,,10.0266919136,89,27,2,841.628215075,5,,,,,,,2017_Jul_18_1243,59.9057060548,DRL_task,1,104,
1,0,1,0,,,5.22385716438,90,28,2,846.850029945,5,,,,,,,2017_Jul_18_1243,59.9057060548,DRL_task,1,104,
1,0,1,0,,,4.48765492439,90,29,2,851.337570906,5,,,,,,,2017_Jul_18_1243,59.9057060548,DRL_task,1,104,
1,0,1,0,,,5.80624008179,91,30,2,857.143797874,5,,,,,,,2017_Jul_18_1243,59.9057060548,DRL_task,1,104,
1,0,1,0,,,0.950459003448,91,31,2,858.095067978,5,,,,,,,2017_Jul_18_1243,59.9057060548,DRL_task,1,104,
1,0,1,0,,,6.67347788811,92,32,2,864.768429995,5,,,,,,,2017_Jul_18_1243,59.9057060548,DRL_task,1,104,
1,0,1,0,,,0.600454092026,92,33,2,865.369073868,5,,,,,,,2017_Jul_18_1243,59.9057060548,DRL_task,1,104,
1,0,1,0,,,6.02358198166,93,34,2,871.391797066,5,,,,,,,2017_Jul_18_1243,59.9057060548,DRL_task,1,104,
1,0,1,0,,,7.13985991478,94,35,2,878.532602072,5,,,,,,,2017_Jul_18_1243,59.9057060548,DRL_task,1,104,
1,0,1,0,,,7.44105505943,95,36,2,885.973448038,5,,,,,,,2017_Jul_18_1243,59.9057060548,DRL_task,1,104,
1,0,1,0,,,8.74124693871,96,37,2,894.715619087,5,,,,,,,2017_Jul_18_1243,59.9057060548,DRL_task,1,104,
1,0,1,0,,,6.9082710743,97,38,2,901.622643948,5,,,,,,,2017_Jul_18_1243,59.9057060548,DRL_task,1,104,
1,0,1,0,,,3.45391702652,97,39,2,905.076224089,5,,,,,,,2017_Jul_18_1243,59.9057060548,DRL_task,1,104,
1,0,1,0,,,1.5344479084,97,40,2,906.61132288,5,,,,,,,2017_Jul_18_1243,59.9057060548,DRL_task,1,104,
1,0,1,0,,,5.3055961132,98,41,2,911.916594028,5,,,,,,,2017_Jul_18_1243,59.9057060548,DRL_task,1,104,
1,0,1,0,,,6.62341189384,99,42,2,918.540101051,5,,,,,,,2017_Jul_18_1243,59.9057060548,DRL_task,1,104,
1,0,1,0,,,5.30554389954,100,43,2,923.845393896,5,,,,,,,2017_Jul_18_1243,59.9057060548,DRL_task,1,104,
1,0,1,0,,,6.18955111504,101,44,2,930.035147905,5,,,,,,,2017_Jul_18_1243,59.9057060548,DRL_task,1,104,
1,0,1,0,,,5.97139191628,102,45,2,936.007917881,5,,,,,,,2017_Jul_18_1243,59.9057060548,DRL_task,1,104,
1,0,1,0,,,6.15789699554,103,46,2,942.164314032,5,,,,,,,2017_Jul_18_1243,59.9057060548,DRL_task,1,104,
1,0,1,0,,,0.738077163696,103,47,2,942.91523695,5,,,,,,,2017_Jul_18_1243,59.9057060548,DRL_task,1,104,
1,0,1,0,,,2.64696002007,103,48,2,945.551013947,5,,,,,,,2017_Jul_18_1243,59.9057060548,DRL_task,1,104,
1,0,1,0,,,2.32057976723,103,49,2,947.870359898,5,,,,,,,2017_Jul_18_1243,59.9057060548,DRL_task,1,104,
1,0,1,0,,,7.02281308174,104,50,2,954.894346952,5,,,,,,,2017_Jul_18_1243,59.9057060548,DRL_task,1,104,
1,0,1,0,,,8.44211506844,105,51,2,963.352977991,5,,,,,,,2017_Jul_18_1243,59.9057060548,DRL_task,1,104,
1,0,1,0,,,11.6285040379,106,52,2,974.965135098,5,,,,,,,2017_Jul_18_1243,59.9057060548,DRL_task,1,104,
1,0,1,0,,,0.233883857727,106,53,2,975.198602915,5,,,,,,,2017_Jul_18_1243,59.9057060548,DRL_task,1,104,
1,0,1,0,,,5.35669803619,107,54,2,980.554122925,5,,,,,,,2017_Jul_18_1243,59.9057060548,DRL_task,1,104,
1,0,1,0,,,6.50570392609,108,55,2,987.060906887,5,,,,,,,2017_Jul_18_1243,59.9057060548,DRL_task,1,104,
1,0,1,0,,,6.65654706955,109,56,2,993.717922926,5,,,,,,,2017_Jul_18_1243,59.9057060548,DRL_task,1,104,
1,0,1,0,,,0.535042047501,109,57,2,994.251856089,5,,,,,,,2017_Jul_18_1243,59.9057060548,DRL_task,1,104,
1,0,1,0,,,12.7802729607,110,58,2,1007.03124189,5,,,,,,,2017_Jul_18_1243,59.9057060548,DRL_task,1,104,
1,0,1,0,,,6.77238512039,111,59,2,1013.80543208,5,,,,,,,2017_Jul_18_1243,59.9057060548,DRL_task,1,104,
1,0,1,0,,,6.14096093178,112,60,2,1019.94507599,5,,,,,,,2017_Jul_18_1243,59.9057060548,DRL_task,1,104,
1,0,1,0,,,7.7915558815,113,61,2,1027.73643994,5,,,,,,,2017_Jul_18_1243,59.9057060548,DRL_task,1,104,
1,0,1,0,,,7.90859699249,114,62,2,1035.66157889,5,,,,,,,2017_Jul_18_1243,59.9057060548,DRL_task,1,104,
1,0,1,0,,,5.65525913239,115,63,2,1041.30073595,5,,,,,,,2017_Jul_18_1243,59.9057060548,DRL_task,1,104,
1,0,1,0,,,8.25884699821,116,64,2,1049.55918503,5,,,,,,,2017_Jul_18_1243,59.9057060548,DRL_task,1,104,
1,0,1,0,,,6.58896994591,117,65,2,1056.14932108,5,,,,,,,2017_Jul_18_1243,59.9057060548,DRL_task,1,104,
1,0,1,0,,,7.17513012886,118,66,2,1063.34038806,5,,,,,,,2017_Jul_18_1243,59.9057060548,DRL_task,1,104,
1,0,1,0,,,7.54133796692,119,67,2,1070.86480808,5,,,,,,,2017_Jul_18_1243,59.9057060548,DRL_task,1,104,
1,0,1,0,,,6.10651993752,120,68,2,1076.97103,5,,,,,,,2017_Jul_18_1243,59.9057060548,DRL_task,1,104,
1,0,1,0,,,4.98806905746,120,69,2,1081.95967889,5,,,,,,,2017_Jul_18_1243,59.9057060548,DRL_task,1,104,
1,0,1,0,,,6.1901679039,121,70,2,1088.16630292,5,,,,,,,2017_Jul_18_1243,59.9057060548,DRL_task,1,104,
1,0,1,0,,,8.05667901039,122,71,2,1096.20795989,5,,,,,,,2017_Jul_18_1243,59.9057060548,DRL_task,1,104,
1,0,1,0,,,1.23482608795,122,72,2,1097.44254994,5,,,,,,,2017_Jul_18_1243,59.9057060548,DRL_task,1,104,
1,0,1,0,,,7.47433185577,123,73,2,1104.9168961,5,,,,,,,2017_Jul_18_1243,59.9057060548,DRL_task,1,104,
1,0,1,0,,,6.55675005913,124,74,2,1111.47372603,5,,,,,,,2017_Jul_18_1243,59.9057060548,DRL_task,1,104,
1,0,1,0,,,7.64154911041,125,75,2,1119.13158298,5,,,,,,,2017_Jul_18_1243,59.9057060548,DRL_task,1,104,
1,0,1,0,,,5.89071297646,126,76,2,1125.02122808,5,,,,,,,2017_Jul_18_1243,59.9057060548,DRL_task,1,104,
1,0,1,0,,,6.02141690254,127,77,2,1131.02739,5,,,,,,,2017_Jul_18_1243,59.9057060548,DRL_task,1,104,
1,0,1,0,,,6.89236307144,128,78,2,1137.91773009,5,,,,,,,2017_Jul_18_1243,59.9057060548,DRL_task,1,104,
1,0,1,0,,,7.57291293144,129,79,2,1145.49232888,5,,,,,,,2017_Jul_18_1243,59.9057060548,DRL_task,1,104,
1,0,1,0,,,8.14332103729,130,80,2,1153.63428903,5,,,,,,,2017_Jul_18_1243,59.9057060548,DRL_task,1,104,
1,0,1,0,,,6.68886899948,131,81,2,1160.32458091,5,,,,,,,2017_Jul_18_1243,59.9057060548,DRL_task,1,104,
1,0,1,0,,,5.474132061,132,82,2,1165.81354809,5,,,,,,,2017_Jul_18_1243,59.9057060548,DRL_task,1,104,
1,0,1,0,,,5.83913397789,133,83,2,1171.63630891,5,,,,,,,2017_Jul_18_1243,59.9057060548,DRL_task,1,104,
1,0,1,0,,,8.17527198792,134,84,2,1179.82512307,5,,,,,,,2017_Jul_18_1243,59.9057060548,DRL_task,1,104,
1,0,1,0,,,6.9070110321,135,85,2,1186.71898007,5,,,,,,,2017_Jul_18_1243,59.9057060548,DRL_task,1,104,
1,0,1,0,,,6.63889884949,136,86,2,1193.35923409,5,,,,,,,2017_Jul_18_1243,59.9057060548,DRL_task,1,104,
1,0,1,0,,,5.93820405006,137,87,2,1199.29888391,5,,,,,,,2017_Jul_18_1243,59.9057060548,DRL_task,1,104,
1,0,1,0,,,6.29136300087,138,88,2,1205.58881497,5,,,,,,,2017_Jul_18_1243,59.9057060548,DRL_task,1,104,
1,0,1,0,,,9.97854804993,139,89,2,1215.56556296,5,,,,,,,2017_Jul_18_1243,59.9057060548,DRL_task,1,104,
1,0,1,0,,,5.47219491005,140,90,2,1221.03817606,5,,,,,,,2017_Jul_18_1243,59.9057060548,DRL_task,1,104,
1,0,1,0,,,7.05739712715,141,91,2,1228.09558392,5,,,,,,,2017_Jul_18_1243,59.9057060548,DRL_task,1,104,
1,0,1,0,,,1.46697187424,141,92,2,1229.56358194,5,,,,,,,2017_Jul_18_1243,59.9057060548,DRL_task,1,104,
1,0,1,0,,,3.01977300644,141,93,2,1232.58339691,5,,,,,,,2017_Jul_18_1243,59.9057060548,DRL_task,1,104,
1,0,1,0,,,3.25492501259,141,94,2,1235.83681202,5,,,,,,,2017_Jul_18_1243,59.9057060548,DRL_task,1,104,
1,0,1,0,,,5.37195014954,142,95,2,1241.20927596,5,,,,,,,2017_Jul_18_1243,59.9057060548,DRL_task,1,104,
1,0,1,0,,,5.78823685646,143,96,2,1246.99853587,5,,,,,,,2017_Jul_18_1243,59.9057060548,DRL_task,1,104,
1,0,1,0,,,4.88827204704,143,97,2,1251.88712907,5,,,,,,,2017_Jul_18_1243,59.9057060548,DRL_task,1,104,
1,0,1,0,,,1.06781888008,143,98,2,1252.95492005,5,,,,,,,2017_Jul_18_1243,59.9057060548,DRL_task,1,104,
1,0,1,0,,,3.62253022194,143,99,2,1256.5918901,5,,,,,,,2017_Jul_18_1243,59.9057060548,DRL_task,1,104,
1,0,1,0,,,3.0511507988,143,100,2,1259.62857604,5,,,,,,,2017_Jul_18_1243,59.9057060548,DRL_task,1,104,
1,0,1,0,,,1.46813201904,143,101,2,1261.09676194,5,,,,,,,2017_Jul_18_1243,59.9057060548,DRL_task,1,104,
1,0,1,0,,,5.67497897148,144,102,2,1266.76918101,5,,,,,,,2017_Jul_18_1243,59.9057060548,DRL_task,1,104,
1,0,1,0,,,7.52394413948,145,103,2,1274.29376006,5,,,,,,,2017_Jul_18_1243,59.9057060548,DRL_task,1,104,
1,0,1,0,,,,,,,,,"['space', 'space', 'space', 'space', 'space', 'space', 'space', 'space', 'space', 'space', 'space', 'space', 'space', 'space', 'space', 'space', 'space', 'space', 'space', 'space', 'space', 'space', 'space', 'space', 'space', 'space', 'space', 'space', 'space', 'space', 'space', 'space', 'space', 'space', 'space', 'space', 'space', 'space', 'space', 'space', 'space', 'space', 'space', 'space', 'space', 'space', 'space', 'space', 'space', 'space', 'space', 'space', 'space', 'space', 'space', 'space', 'space', 'space', 'space', 'space', 'space', 'space', 'space', 'space', 'space', 'space', 'space', 'space', 'space', 'space', 'space', 'space', 'space', 'space', 'space', 'space', 'space', 'space', 'space', 'space', 'space', 'space', 'space', 'space', 'space', 'space', 'space', 'space', 'space', 'space', 'space', 'space', 'space', 'space', 'space', 'space', 'space', 'space', 'space', 'space', 'space', 'space', 'space']","[5.234755992889404, 11.407665014266968, 16.828207969665527, 23.26955485343933, 30.560794830322266, 42.039095878601074, 50.48097205162048, 57.370863914489746, 58.054932832717896, 58.6556830406189, 65.71127796173096, 73.75276184082031, 80.89461588859558, 90.1375458240509, 97.276859998703, 98.76350688934326, 105.0189859867096, 111.04230093955994, 118.0827488899231, 123.70528197288513, 127.67448091506958, 131.42972087860107, 137.7015368938446, 143.84104990959167, 149.4468710422516, 154.41848397254944, 164.44517588615417, 169.6690330505371, 174.1566879749298, 179.96292805671692, 180.9133870601654, 187.5868649482727, 188.18731904029846, 194.2109010219574, 201.35076093673706, 208.79181599617004, 217.5330629348755, 224.44133400917053, 227.8952510356903, 229.4296989440918, 234.73529505729675, 241.35870695114136, 246.6642508506775, 252.8538019657135, 258.8251938819885, 264.98309087753296, 265.72116804122925, 268.36812806129456, 270.68870782852173, 277.71152091026306, 286.15363597869873, 297.7821400165558, 298.01602387428284, 303.3727219104767, 309.8784258365631, 316.53497290611267, 317.0700149536133, 329.8502879142761, 336.62267303466797, 342.7636339664459, 350.55518984794617, 358.46378684043884, 364.1190459728241, 372.3778929710388, 378.9668629169464, 386.1419930458069, 393.68333101272583, 399.7898509502411, 404.7779200077057, 410.96808791160583, 419.02476692199707, 420.25959300994873, 427.73392486572266, 434.29067492485046, 441.93222403526306, 447.82293701171875, 453.84435391426086, 460.7367169857025, 468.3096299171448, 476.45295095443726, 483.14181995391846, 488.6159520149231, 494.4550859928131, 502.63035798072815, 509.53736901283264, 516.17626786232, 522.114471912384, 528.4058349132538, 538.3843829631805, 543.85657787323, 550.9139750003815, 552.3809468746185, 555.4007198810577, 558.6556448936462, 564.0275950431824, 569.815831899643, 574.7041039466858, 575.771922826767, 579.394453048706, 582.4456038475037, 583.9137358665466, 589.588714838028, 597.1126589775085]",space,62.13164711,,,2017_Jul_18_1243,59.9057060548,DRL_task,1,104,
2,0,2,0,,,4.1599779129,145,1,3,1344.7008431,5,,,,,,,2017_Jul_18_1243,59.9057060548,DRL_task,1,104,
2,0,2,0,,,1.16631317139,145,2,3,1345.86887002,5,,,,,,,2017_Jul_18_1243,59.9057060548,DRL_task,1,104,
2,0,2,0,,,8.00840497017,146,3,3,1353.87734389,5,,,,,,,2017_Jul_18_1243,59.9057060548,DRL_task,1,104,
2,0,2,0,,,7.89191889763,147,4,3,1361.76868391,5,,,,,,,2017_Jul_18_1243,59.9057060548,DRL_task,1,104,
2,0,2,0,,,7.20730400085,148,5,3,1368.97620797,5,,,,,,,2017_Jul_18_1243,59.9057060548,DRL_task,1,104,
2,0,2,0,,,8.86077404022,149,6,3,1377.83557987,5,,,,,,,2017_Jul_18_1243,59.9057060548,DRL_task,1,104,
2,0,2,0,,,10.309221983,150,7,3,1388.14641094,5,,,,,,,2017_Jul_18_1243,59.9057060548,DRL_task,1,104,
2,0,2,0,,,9.34366297722,151,8,3,1397.48958087,5,,,,,,,2017_Jul_18_1243,59.9057060548,DRL_task,1,104,
2,0,2,0,,,9.52635097504,152,9,3,1407.01608396,5,,,,,,,2017_Jul_18_1243,59.9057060548,DRL_task,1,104,
2,0,2,0,,,9.0093331337,153,10,3,1416.02558708,5,,,,,,,2017_Jul_18_1243,59.9057060548,DRL_task,1,104,
2,0,2,0,,,8.34362602234,154,11,3,1424.36759305,5,,,,,,,2017_Jul_18_1243,59.9057060548,DRL_task,1,104,
2,0,2,0,,,0.366838932037,154,12,3,1424.73423195,5,,,,,,,2017_Jul_18_1243,59.9057060548,DRL_task,1,104,
2,0,2,0,,,6.2733809948,155,13,3,1431.00787306,5,,,,,,,2017_Jul_18_1243,59.9057060548,DRL_task,1,104,
2,0,2,0,,,9.25960206985,156,14,3,1440.26782203,5,,,,,,,2017_Jul_18_1243,59.9057060548,DRL_task,1,104,
2,0,2,0,,,12.8782608509,157,15,3,1453.14784598,5,,,,,,,2017_Jul_18_1243,59.9057060548,DRL_task,1,104,
2,0,2,0,,,11.4309930801,158,16,3,1464.57639408,5,,,,,,,2017_Jul_18_1243,59.9057060548,DRL_task,1,104,
2,0,2,0,,,8.19007301331,159,17,3,1472.76831102,5,,,,,,,2017_Jul_18_1243,59.9057060548,DRL_task,1,104,
2,0,2,0,,,6.72493600845,160,18,3,1479.49218392,5,,,,,,,2017_Jul_18_1243,59.9057060548,DRL_task,1,104,
2,0,2,0,,,7.67512583733,161,19,3,1487.166857,5,,,,,,,2017_Jul_18_1243,59.9057060548,DRL_task,1,104,
2,0,2,0,,,6.97379302979,162,20,3,1494.14072704,5,,,,,,,2017_Jul_18_1243,59.9057060548,DRL_task,1,104,
2,0,2,0,,,9.9101331234,163,21,3,1504.0512321,5,,,,,,,2017_Jul_18_1243,59.9057060548,DRL_task,1,104,
2,0,2,0,,,1.53492593765,163,22,3,1505.58618188,5,,,,,,,2017_Jul_18_1243,59.9057060548,DRL_task,1,104,
2,0,2,0,,,0.349373102188,163,23,3,1505.936445,5,,,,,,,2017_Jul_18_1243,59.9057060548,DRL_task,1,104,
2,0,2,0,,,7.39216184616,164,24,3,1513.32774496,5,,,,,,,2017_Jul_18_1243,59.9057060548,DRL_task,1,104,
2,0,2,0,,,12.3130750656,165,25,3,1525.63998199,5,,,,,,,2017_Jul_18_1243,59.9057060548,DRL_task,1,104,
2,0,2,0,,,9.59196805954,166,26,3,1535.23395205,5,,,,,,,2017_Jul_18_1243,59.9057060548,DRL_task,1,104,
2,0,2,0,,,9.27620196342,167,27,3,1544.51032591,5,,,,,,,2017_Jul_18_1243,59.9057060548,DRL_task,1,104,
2,0,2,0,,,9.19336104393,168,28,3,1553.70312405,5,,,,,,,2017_Jul_18_1243,59.9057060548,DRL_task,1,104,
2,0,2,0,,,9.44463300705,169,29,3,1563.14650607,5,,,,,,,2017_Jul_18_1243,59.9057060548,DRL_task,1,104,
2,0,2,0,,,19.7858088017,170,30,3,1582.93383193,5,,,,,,,2017_Jul_18_1243,59.9057060548,DRL_task,1,104,
2,0,2,0,,,9.59340119362,171,31,3,1592.52720499,5,,,,,,,2017_Jul_18_1243,59.9057060548,DRL_task,1,104,
2,0,2,0,,,7.97640585899,172,32,3,1600.50219202,5,,,,,,,2017_Jul_18_1243,59.9057060548,DRL_task,1,104,
2,0,2,0,,,7.9417090416,173,33,3,1608.44392991,5,,,,,,,2017_Jul_18_1243,59.9057060548,DRL_task,1,104,
2,0,2,0,,,7.00759911537,174,34,3,1615.45122194,5,,,,,,,2017_Jul_18_1243,59.9057060548,DRL_task,1,104,
2,0,2,0,,,6.45638084412,175,35,3,1621.90816903,5,,,,,,,2017_Jul_18_1243,59.9057060548,DRL_task,1,104,
2,0,2,0,,,5.23879098892,176,36,3,1627.14702988,5,,,,,,,2017_Jul_18_1243,59.9057060548,DRL_task,1,104,
2,0,2,0,,,9.75922107697,177,37,3,1636.90706801,5,,,,,,,2017_Jul_18_1243,59.9057060548,DRL_task,1,104,
2,0,2,0,,,7.12501907349,178,38,3,1644.03138208,5,,,,,,,2017_Jul_18_1243,59.9057060548,DRL_task,1,104,
2,0,2,0,,,6.0565738678,179,39,3,1650.08752704,5,,,,,,,2017_Jul_18_1243,59.9057060548,DRL_task,1,104,
2,0,2,0,,,7.12406301498,180,40,3,1657.21181297,5,,,,,,,2017_Jul_18_1243,59.9057060548,DRL_task,1,104,
2,0,2,0,,,5.22114896774,181,41,3,1662.43382406,5,,,,,,,2017_Jul_18_1243,59.9057060548,DRL_task,1,104,
2,0,2,0,,,6.156208992,182,42,3,1668.59043694,5,,,,,,,2017_Jul_18_1243,59.9057060548,DRL_task,1,104,
2,0,2,0,,,5.1902320385,183,43,3,1673.77907395,5,,,,,,,2017_Jul_18_1243,59.9057060548,DRL_task,1,104,
2,0,2,0,,,6.57193493843,184,44,3,1680.35274506,5,,,,,,,2017_Jul_18_1243,59.9057060548,DRL_task,1,104,
2,0,2,0,,,8.22214221954,185,45,3,1688.5781579,5,,,,,,,2017_Jul_18_1243,59.9057060548,DRL_task,1,104,
2,0,2,0,,,8.04504084587,186,46,3,1696.619735,5,,,,,,,2017_Jul_18_1243,59.9057060548,DRL_task,1,104,
2,0,2,0,,,5.44031214714,187,47,3,1702.05872202,5,,,,,,,2017_Jul_18_1243,59.9057060548,DRL_task,1,104,
2,0,2,0,,,7.30644989014,188,48,3,1709.36638093,5,,,,,,,2017_Jul_18_1243,59.9057060548,DRL_task,1,104,
2,0,2,0,,,4.07071208954,188,49,3,1713.4375031,5,,,,,,,2017_Jul_18_1243,59.9057060548,DRL_task,1,104,
2,0,2,0,,,1.35169696808,188,50,3,1714.78874493,5,,,,,,,2017_Jul_18_1243,59.9057060548,DRL_task,1,104,
2,0,2,0,,,0.869295835495,188,51,3,1715.656358,5,,,,,,,2017_Jul_18_1243,59.9057060548,DRL_task,1,104,
2,0,2,0,,,1.7013361454,188,52,3,1717.35808992,5,,,,,,,2017_Jul_18_1243,59.9057060548,DRL_task,1,104,
2,0,2,0,,,2.6347720623,188,53,3,1719.99417806,5,,,,,,,2017_Jul_18_1243,59.9057060548,DRL_task,1,104,
2,0,2,0,,,2.06892085075,188,54,3,1722.06309104,5,,,,,,,2017_Jul_18_1243,59.9057060548,DRL_task,1,104,
2,0,2,0,,,0.735787153244,188,55,3,1722.7971139,5,,,,,,,2017_Jul_18_1243,59.9057060548,DRL_task,1,104,
2,0,2,0,,,1.31736397743,188,56,3,1724.11540604,5,,,,,,,2017_Jul_18_1243,59.9057060548,DRL_task,1,104,
2,0,2,0,,,4.40337300301,188,57,3,1728.51995802,5,,,,,,,2017_Jul_18_1243,59.9057060548,DRL_task,1,104,
2,0,2,0,,,2.78777384758,188,58,3,1731.30606794,5,,,,,,,2017_Jul_18_1243,59.9057060548,DRL_task,1,104,
2,0,2,0,,,9.30991101265,189,59,3,1740.61583805,5,,,,,,,2017_Jul_18_1243,59.9057060548,DRL_task,1,104,
2,0,2,0,,,9.67524003983,190,60,3,1750.29265809,5,,,,,,,2017_Jul_18_1243,59.9057060548,DRL_task,1,104,
2,0,2,0,,,5.32219409943,191,61,3,1755.6146729,5,,,,,,,2017_Jul_18_1243,59.9057060548,DRL_task,1,104,
2,0,2,0,,,0.952483892441,191,62,3,1756.56588387,5,,,,,,,2017_Jul_18_1243,59.9057060548,DRL_task,1,104,
2,0,2,0,,,0.833045005798,191,63,3,1757.40007901,5,,,,,,,2017_Jul_18_1243,59.9057060548,DRL_task,1,104,
2,0,2,0,,,0.518363952637,191,64,3,1757.96743989,5,,,,,,,2017_Jul_18_1243,59.9057060548,DRL_task,1,104,
2,0,2,0,,,0.817561149597,191,65,3,1758.73482704,5,,,,,,,2017_Jul_18_1243,59.9057060548,DRL_task,1,104,
2,0,2,0,,,3.20174598694,191,66,3,1761.9716959,5,,,,,,,2017_Jul_18_1243,59.9057060548,DRL_task,1,104,
2,0,2,0,,,2.53613686562,191,67,3,1764.4741621,5,,,,,,,2017_Jul_18_1243,59.9057060548,DRL_task,1,104,
2,0,2,0,,,2.0201561451,191,68,3,1766.49315596,5,,,,,,,2017_Jul_18_1243,59.9057060548,DRL_task,1,104,
2,0,2,0,,,5.07173490524,192,69,3,1771.56512094,5,,,,,,,2017_Jul_18_1243,59.9057060548,DRL_task,1,104,
2,0,2,0,,,4.16996502876,192,70,3,1775.76938987,5,,,,,,,2017_Jul_18_1243,59.9057060548,DRL_task,1,104,
2,0,2,0,,,2.23552894592,192,71,3,1777.97180295,5,,,,,,,2017_Jul_18_1243,59.9057060548,DRL_task,1,104,
2,0,2,0,,,6.90719914436,193,72,3,1784.87908888,5,,,,,,,2017_Jul_18_1243,59.9057060548,DRL_task,1,104,
2,0,2,0,,,3.10343599319,193,73,3,1787.98203206,5,,,,,,,2017_Jul_18_1243,59.9057060548,DRL_task,1,104,
2,0,2,0,,,3.06988191605,193,74,3,1791.05181909,5,,,,,,,2017_Jul_18_1243,59.9057060548,DRL_task,1,104,
2,0,2,0,,,6.67526292801,194,75,3,1797.7258029,5,,,,,,,2017_Jul_18_1243,59.9057060548,DRL_task,1,104,
2,0,2,0,,,2.56759595871,194,76,3,1800.29521894,5,,,,,,,2017_Jul_18_1243,59.9057060548,DRL_task,1,104,
2,0,2,0,,,3.08842515945,194,77,3,1803.38169003,5,,,,,,,2017_Jul_18_1243,59.9057060548,DRL_task,1,104,
2,0,2,0,,,2.38536095619,194,78,3,1805.767488,5,,,,,,,2017_Jul_18_1243,59.9057060548,DRL_task,1,104,
2,0,2,0,,,13.4808280468,195,79,3,1819.24833298,5,,,,,,,2017_Jul_18_1243,59.9057060548,DRL_task,1,104,
2,0,2,0,,,14.4151668549,196,80,3,1833.66348696,5,,,,,,,2017_Jul_18_1243,59.9057060548,DRL_task,1,104,
2,0,2,0,,,0.583669185638,196,81,3,1834.24755502,5,,,,,,,2017_Jul_18_1243,59.9057060548,DRL_task,1,104,
2,0,2,0,,,2.08634781837,196,82,3,1836.33289695,5,,,,,,,2017_Jul_18_1243,59.9057060548,DRL_task,1,104,
2,0,2,0,,,2.16698002815,196,83,3,1838.50202489,5,,,,,,,2017_Jul_18_1243,59.9057060548,DRL_task,1,104,
2,0,2,0,,,5.52247214317,197,84,3,1844.02449799,5,,,,,,,2017_Jul_18_1243,59.9057060548,DRL_task,1,104,
2,0,2,0,,,5.69051599503,198,85,3,1849.713732,5,,,,,,,2017_Jul_18_1243,59.9057060548,DRL_task,1,104,
2,0,2,0,,,5.73983693123,199,86,3,1855.45300508,5,,,,,,,2017_Jul_18_1243,59.9057060548,DRL_task,1,104,
2,0,2,0,,,6.64004993439,200,87,3,1862.09346294,5,,,,,,,2017_Jul_18_1243,59.9057060548,DRL_task,1,104,
2,0,2,0,,,1.00104594231,200,88,3,1863.09434795,5,,,,,,,2017_Jul_18_1243,59.9057060548,DRL_task,1,104,
2,0,2,0,,,0.35041809082,200,89,3,1863.4447639,5,,,,,,,2017_Jul_18_1243,59.9057060548,DRL_task,1,104,
2,0,2,0,,,0.115267038345,200,90,3,1863.56166196,5,,,,,,,2017_Jul_18_1243,59.9057060548,DRL_task,1,104,
2,0,2,0,,,0.216623067856,200,91,3,1863.77836895,5,,,,,,,2017_Jul_18_1243,59.9057060548,DRL_task,1,104,
2,0,2,0,,,1.56888389587,200,92,3,1865.34688807,5,,,,,,,2017_Jul_18_1243,59.9057060548,DRL_task,1,104,
2,0,2,0,,,4.58807301521,200,93,3,1869.93485188,5,,,,,,,2017_Jul_18_1243,59.9057060548,DRL_task,1,104,
2,0,2,0,,,7.54126310349,201,94,3,1877.47625089,5,,,,,,,2017_Jul_18_1243,59.9057060548,DRL_task,1,104,
2,0,2,0,,,1.63523077965,201,95,3,1879.11107802,5,,,,,,,2017_Jul_18_1243,59.9057060548,DRL_task,1,104,
2,0,2,0,,,6.32291722298,202,96,3,1885.43462801,5,,,,,,,2017_Jul_18_1243,59.9057060548,DRL_task,1,104,
2,0,2,0,,,6.6750869751,203,97,3,1892.10833597,5,,,,,,,2017_Jul_18_1243,59.9057060548,DRL_task,1,104,
2,0,2,0,,,6.18842482567,204,98,3,1898.29808092,5,,,,,,,2017_Jul_18_1243,59.9057060548,DRL_task,1,104,
2,0,2,0,,,6.35706615448,205,99,3,1904.67134809,5,,,,,,,2017_Jul_18_1243,59.9057060548,DRL_task,1,104,
2,0,2,0,,,1.10283493996,205,100,3,1905.7725389,5,,,,,,,2017_Jul_18_1243,59.9057060548,DRL_task,1,104,
2,0,2,0,,,0.23149394989,205,101,3,1905.98949695,5,,,,,,,2017_Jul_18_1243,59.9057060548,DRL_task,1,104,
2,0,2,0,,,5.95745515823,206,102,3,1911.94579387,5,,,,,,,2017_Jul_18_1243,59.9057060548,DRL_task,1,104,
2,0,2,0,,,5.8734498024,207,103,3,1917.81845307,5,,,,,,,2017_Jul_18_1243,59.9057060548,DRL_task,1,104,
2,0,2,0,,,3.1514840126,207,104,3,1920.97195005,5,,,,,,,2017_Jul_18_1243,59.9057060548,DRL_task,1,104,
2,0,2,0,,,5.1066429615,208,105,3,1926.07730699,5,,,,,,,2017_Jul_18_1243,59.9057060548,DRL_task,1,104,
2,0,2,0,,,6.4556992054,209,106,3,1932.5338459,5,,,,,,,2017_Jul_18_1243,59.9057060548,DRL_task,1,104,
2,0,2,0,,,5.87278485298,210,107,3,1938.40671301,5,,,,,,,2017_Jul_18_1243,59.9057060548,DRL_task,1,104,
2,0,2,0,,,,,,,,,"['space', 'space', 'space', 'space', 'space', 'space', 'space', 'space', 'space', 'space', 'space', 'space', 'space', 'space', 'space', 'space', 'space', 'space', 'space', 'space', 'space', 'space', 'space', 'space', 'space', 'space', 'space', 'space', 'space', 'space', 'space', 'space', 'space', 'space', 'space', 'space', 'space', 'space', 'space', 'space', 'space', 'space', 'space', 'space', 'space', 'space', 'space', 'space', 'space', 'space', 'space', 'space', 'space', 'space', 'space', 'space', 'space', 'space', 'space', 'space', 'space', 'space', 'space', 'space', 'space', 'space', 'space', 'space', 'space', 'space', 'space', 'space', 'space', 'space', 'space', 'space', 'space', 'space', 'space', 'space', 'space', 'space', 'space', 'space', 'space', 'space', 'space', 'space', 'space', 'space', 'space', 'space', 'space', 'space', 'space', 'space', 'space', 'space', 'space', 'space', 'space', 'space', 'space', 'space', 'space', 'space', 'space']","[4.159977912902832, 5.326291084289551, 13.334696054458618, 21.226614952087402, 28.433918952941895, 37.29469299316406, 47.603914976119995, 56.94757795333862, 66.47392892837524, 75.48326206207275, 83.82688808441162, 84.19372701644897, 90.46710801124573, 99.72671008110046, 112.60497093200684, 124.035964012146, 132.22603702545166, 138.95097303390503, 146.62609887123108, 153.59989190101624, 163.51002502441406, 165.04495096206665, 165.39432406425476, 172.78648591041565, 185.09956097602844, 194.69152903556824, 203.96773099899292, 213.16109204292297, 222.60572504997253, 242.39153385162354, 251.9849350452423, 259.96134090423584, 267.9030499458313, 274.910649061203, 281.3670299053192, 286.60582089424133, 296.36504197120667, 303.490061044693, 309.54663491249084, 316.670697927475, 321.8918468952179, 328.0480558872223, 333.2382879257202, 339.810222864151, 348.03236508369446, 356.07740592956543, 361.51771807670593, 368.82416796684265, 372.8948800563812, 374.24657702445984, 375.11587285995483, 376.81720900535583, 379.45198106765747, 381.52090191841125, 382.2566890716553, 383.5740530490875, 387.9774260520935, 390.76519989967346, 400.075110912323, 409.75035095214844, 415.0725450515747, 416.0250289440155, 416.85807394981384, 417.37643790245056, 418.19399905204773, 421.3957450389862, 423.93188190460205, 425.9520380496979, 431.0237729549408, 435.1937379837036, 437.42926692962646, 444.33646607398987, 447.43990206718445, 450.5097839832306, 457.1850469112396, 459.75264286994934, 462.8410680294037, 465.2264289855957, 478.7072570323944, 493.1224238872528, 493.70609307289124, 495.79244089126587, 497.95942091941833, 503.48189306259155, 509.1724090576172, 514.9122459888458, 521.552295923233, 522.5533418655396, 522.9037599563599, 523.0190269947052, 523.235650062561, 524.8045339584351, 529.3926069736481, 536.9338700771332, 538.569100856781, 544.8920180797577, 551.5671050548553, 557.7555298805237, 564.1125960350037, 565.2154309749603, 565.4469249248505, 571.4043800830841, 577.2778298854828, 580.4293138980865, 585.5359568595886, 591.9916560649872, 597.8644409179688]",space,65.5202920437,,,2017_Jul_18_1243,59.9057060548,DRL_task,1,104,
3,0,3,0,,,4.83832192421,210,1,4,2012.10099792,5,,,,,,,2017_Jul_18_1243,59.9057060548,DRL_task,1,104,
3,0,3,0,,,6.7058801651,211,2,4,2018.80799603,5,,,,,,,2017_Jul_18_1243,59.9057060548,DRL_task,1,104,
3,0,3,0,,,7.59147191048,212,3,4,2026.39919806,5,,,,,,,2017_Jul_18_1243,59.9057060548,DRL_task,1,104,
3,0,3,0,,,8.05966806412,213,4,4,2034.45763898,5,,,,,,,2017_Jul_18_1243,59.9057060548,DRL_task,1,104,
3,0,3,0,,,11.5285840034,214,5,4,2045.98606205,5,,,,,,,2017_Jul_18_1243,59.9057060548,DRL_task,1,104,
3,0,3,0,,,7.77366685867,215,6,4,2053.76127005,5,,,,,,,2017_Jul_18_1243,59.9057060548,DRL_task,1,104,
3,0,3,0,,,6.74233102798,216,7,4,2060.50164104,5,,,,,,,2017_Jul_18_1243,59.9057060548,DRL_task,1,104,
3,0,3,0,,,10.7271959782,217,8,4,2071.22972298,5,,,,,,,2017_Jul_18_1243,59.9057060548,DRL_task,1,104,
3,0,3,0,,,14.9022521973,218,9,4,2086.14542294,5,,,,,,,2017_Jul_18_1243,59.9057060548,DRL_task,1,104,
3,0,3,0,,,7.92065882683,219,10,4,2094.05369496,5,,,,,,,2017_Jul_18_1243,59.9057060548,DRL_task,1,104,
3,0,3,0,,,7.25757217407,220,11,4,2101.31134295,5,,,,,,,2017_Jul_18_1243,59.9057060548,DRL_task,1,104,
3,0,3,0,,,5.97407388687,221,12,4,2107.28433895,5,,,,,,,2017_Jul_18_1243,59.9057060548,DRL_task,1,104,
3,0,3,0,,,6.45732903481,222,13,4,2113.74081302,5,,,,,,,2017_Jul_18_1243,59.9057060548,DRL_task,1,104,
3,0,3,0,,,6.33823490143,223,14,4,2120.08108592,5,,,,,,,2017_Jul_18_1243,59.9057060548,DRL_task,1,104,
3,0,3,0,,,4.38922905922,223,15,4,2124.46884489,5,,,,,,,2017_Jul_18_1243,59.9057060548,DRL_task,1,104,
3,0,3,0,,,4.75488591194,223,16,4,2129.22400308,5,,,,,,,2017_Jul_18_1243,59.9057060548,DRL_task,1,104,
3,0,3,0,,,6.32205700874,224,17,4,2135.54733491,5,,,,,,,2017_Jul_18_1243,59.9057060548,DRL_task,1,104,
3,0,3,0,,,11.7457420826,225,18,4,2147.29298306,5,,,,,,,2017_Jul_18_1243,59.9057060548,DRL_task,1,104,
3,0,3,0,,,1.31936597824,225,19,4,2148.61082506,5,,,,,,,2017_Jul_18_1243,59.9057060548,DRL_task,1,104,
3,0,3,0,,,6.03830909729,226,20,4,2154.6507051,5,,,,,,,2017_Jul_18_1243,59.9057060548,DRL_task,1,104,
3,0,3,0,,,6.50702285767,227,21,4,2161.15750599,5,,,,,,,2017_Jul_18_1243,59.9057060548,DRL_task,1,104,
3,0,3,0,,,6.19087600708,228,22,4,2167.35506392,5,,,,,,,2017_Jul_18_1243,59.9057060548,DRL_task,1,104,
3,0,3,0,,,14.2482950687,229,23,4,2181.59565687,5,,,,,,,2017_Jul_18_1243,59.9057060548,DRL_task,1,104,
3,0,3,0,,,7.02293992043,230,24,4,2188.61953187,5,,,,,,,2017_Jul_18_1243,59.9057060548,DRL_task,1,104,
3,0,3,0,,,6.85846018791,231,25,4,2195.49345589,5,,,,,,,2017_Jul_18_1243,59.9057060548,DRL_task,1,104,
3,0,3,0,,,5.47106099129,232,26,4,2200.94938493,5,,,,,,,2017_Jul_18_1243,59.9057060548,DRL_task,1,104,
3,0,3,0,,,4.58958697319,232,27,4,2205.53730702,5,,,,,,,2017_Jul_18_1243,59.9057060548,DRL_task,1,104,
3,0,3,0,,,6.44004583359,233,28,4,2211.97740293,5,,,,,,,2017_Jul_18_1243,59.9057060548,DRL_task,1,104,
3,0,3,0,,,9.10825610161,234,29,4,2221.0871911,5,,,,,,,2017_Jul_18_1243,59.9057060548,DRL_task,1,104,
3,0,3,0,,,8.20996308327,235,30,4,2229.29566407,5,,,,,,,2017_Jul_18_1243,59.9057060548,DRL_task,1,104,
3,0,3,0,,,6.54014587402,236,31,4,2235.83592892,5,,,,,,,2017_Jul_18_1243,59.9057060548,DRL_task,1,104,
3,0,3,0,,,11.5444049835,237,32,4,2247.38137388,5,,,,,,,2017_Jul_18_1243,59.9057060548,DRL_task,1,104,
3,0,3,0,,,10.5110759735,238,33,4,2257.89243293,5,,,,,,,2017_Jul_18_1243,59.9057060548,DRL_task,1,104,
3,0,3,0,,,5.6570930481,239,34,4,2263.54833889,5,,,,,,,2017_Jul_18_1243,59.9057060548,DRL_task,1,104,
3,0,3,0,,,8.70882701874,240,35,4,2272.25760198,5,,,,,,,2017_Jul_18_1243,59.9057060548,DRL_task,1,104,
3,0,3,0,,,6.9228079319,241,36,4,2279.18168902,5,,,,,,,2017_Jul_18_1243,59.9057060548,DRL_task,1,104,
3,0,3,0,,,6.99083518982,242,37,4,2286.17172909,5,,,,,,,2017_Jul_18_1243,59.9057060548,DRL_task,1,104,
3,0,3,0,,,6.24079084396,243,38,4,2292.42888188,5,,,,,,,2017_Jul_18_1243,59.9057060548,DRL_task,1,104,
3,0,3,0,,,6.17490410805,244,39,4,2298.60206509,5,,,,,,,2017_Jul_18_1243,59.9057060548,DRL_task,1,104,
3,0,3,0,,,5.60495901108,245,40,4,2304.19121599,5,,,,,,,2017_Jul_18_1243,59.9057060548,DRL_task,1,104,
3,0,3,0,,,11.2768828869,246,41,4,2315.46958804,5,,,,,,,2017_Jul_18_1243,59.9057060548,DRL_task,1,104,
3,0,3,0,,,0.567409038544,246,42,4,2316.03682089,5,,,,,,,2017_Jul_18_1243,59.9057060548,DRL_task,1,104,
3,0,3,0,,,2.36902308464,246,43,4,2318.40602708,5,,,,,,,2017_Jul_18_1243,59.9057060548,DRL_task,1,104,
3,0,3,0,,,2.30221796036,246,44,4,2320.708601,5,,,,,,,2017_Jul_18_1243,59.9057060548,DRL_task,1,104,
3,0,3,0,,,0.752023935318,246,45,4,2321.47608495,5,,,,,,,2017_Jul_18_1243,59.9057060548,DRL_task,1,104,
3,0,3,0,,,0.767452955246,246,46,4,2322.22691798,5,,,,,,,2017_Jul_18_1243,59.9057060548,DRL_task,1,104,
3,0,3,0,,,2.58488106728,246,47,4,2324.81288409,5,,,,,,,2017_Jul_18_1243,59.9057060548,DRL_task,1,104,
3,0,3,0,,,6.07428693771,247,48,4,2330.8857801,5,,,,,,,2017_Jul_18_1243,59.9057060548,DRL_task,1,104,
3,0,3,0,,,6.97398900986,248,49,4,2337.86000705,5,,,,,,,2017_Jul_18_1243,59.9057060548,DRL_task,1,104,
3,0,3,0,,,6.37345600128,249,50,4,2344.23327708,5,,,,,,,2017_Jul_18_1243,59.9057060548,DRL_task,1,104,
3,0,3,0,,,5.32092308998,250,51,4,2349.5556159,5,,,,,,,2017_Jul_18_1243,59.9057060548,DRL_task,1,104,
3,0,3,0,,,4.70514702797,250,52,4,2354.26026392,5,,,,,,,2017_Jul_18_1243,59.9057060548,DRL_task,1,104,
3,0,3,0,,,6.99081993103,251,53,4,2361.25102997,5,,,,,,,2017_Jul_18_1243,59.9057060548,DRL_task,1,104,
3,0,3,0,,,6.23932409286,252,54,4,2367.50772309,5,,,,,,,2017_Jul_18_1243,59.9057060548,DRL_task,1,104,
3,0,3,0,,,8.17548489571,253,55,4,2375.66639709,5,,,,,,,2017_Jul_18_1243,59.9057060548,DRL_task,1,104,
3,0,3,0,,,7.37458491325,254,56,4,2383.04077792,5,,,,,,,2017_Jul_18_1243,59.9057060548,DRL_task,1,104,
3,0,3,0,,,9.91234207153,255,57,4,2392.96775794,5,,,,,,,2017_Jul_18_1243,59.9057060548,DRL_task,1,104,
3,0,3,0,,,7.52423095703,256,58,4,2400.4756031,5,,,,,,,2017_Jul_18_1243,59.9057060548,DRL_task,1,104,
3,0,3,0,,,10.4774971008,257,59,4,2410.953336,5,,,,,,,2017_Jul_18_1243,59.9057060548,DRL_task,1,104,
3,0,3,0,,,6.50615501404,258,60,4,2417.46050787,5,,,,,,,2017_Jul_18_1243,59.9057060548,DRL_task,1,104,
3,0,3,0,,,7.24130988121,259,61,4,2424.7012341,5,,,,,,,2017_Jul_18_1243,59.9057060548,DRL_task,1,104,
3,0,3,0,,,7.02409410477,260,62,4,2431.72537208,5,,,,,,,2017_Jul_18_1243,59.9057060548,DRL_task,1,104,
3,0,3,0,,,11.7112810612,261,63,4,2443.43749094,5,,,,,,,2017_Jul_18_1243,59.9057060548,DRL_task,1,104,
3,0,3,0,,,9.14520788193,262,64,4,2452.61390495,5,,,,,,,2017_Jul_18_1243,59.9057060548,DRL_task,1,104,
3,0,3,0,,,8.32327198982,263,65,4,2460.90620589,5,,,,,,,2017_Jul_18_1243,59.9057060548,DRL_task,1,104,
3,0,3,0,,,6.8749730587,264,66,4,2467.77975893,5,,,,,,,2017_Jul_18_1243,59.9057060548,DRL_task,1,104,
3,0,3,0,,,5.30428099632,265,67,4,2473.08531094,5,,,,,,,2017_Jul_18_1243,59.9057060548,DRL_task,1,104,
3,0,3,0,,,6.7755188942,266,68,4,2479.85913992,5,,,,,,,2017_Jul_18_1243,59.9057060548,DRL_task,1,104,
3,0,3,0,,,5.52044296265,267,69,4,2485.39846897,5,,,,,,,2017_Jul_18_1243,59.9057060548,DRL_task,1,104,
3,0,3,0,,,5.57269716263,268,70,4,2490.95427608,5,,,,,,,2017_Jul_18_1243,59.9057060548,DRL_task,1,104,
3,0,3,0,,,7.05904388428,269,71,4,2498.01173496,5,,,,,,,2017_Jul_18_1243,59.9057060548,DRL_task,1,104,
3,0,3,0,,,8.9744951725,270,72,4,2506.98735905,5,,,,,,,2017_Jul_18_1243,59.9057060548,DRL_task,1,104,
3,0,3,0,,,9.79379892349,271,73,4,2516.78130102,5,,,,,,,2017_Jul_18_1243,59.9057060548,DRL_task,1,104,
3,0,3,0,,,6.49040389061,272,74,4,2523.2714901,5,,,,,,,2017_Jul_18_1243,59.9057060548,DRL_task,1,104,
3,0,3,0,,,10.4952530861,273,75,4,2533.76596308,5,,,,,,,2017_Jul_18_1243,59.9057060548,DRL_task,1,104,
3,0,3,0,,,10.4444549084,274,76,4,2544.21013498,5,,,,,,,2017_Jul_18_1243,59.9057060548,DRL_task,1,104,
3,0,3,0,,,7.22472119331,275,77,4,2551.45124793,5,,,,,,,2017_Jul_18_1243,59.9057060548,DRL_task,1,104,
3,0,3,0,,,6.32301187515,276,78,4,2557.77440691,5,,,,,,,2017_Jul_18_1243,59.9057060548,DRL_task,1,104,
3,0,3,0,,,5.73819994926,277,79,4,2563.49707103,5,,,,,,,2017_Jul_18_1243,59.9057060548,DRL_task,1,104,
3,0,3,0,,,5.72207713127,278,80,4,2569.23670292,5,,,,,,,2017_Jul_18_1243,59.9057060548,DRL_task,1,104,
3,0,3,0,,,6.20693898201,279,81,4,2575.42643905,5,,,,,,,2017_Jul_18_1243,59.9057060548,DRL_task,1,104,
3,0,3,0,,,6.44027900696,280,82,4,2581.86635709,5,,,,,,,2017_Jul_18_1243,59.9057060548,DRL_task,1,104,
3,0,3,0,,,4.5212469101,280,83,4,2586.38798308,5,,,,,,,2017_Jul_18_1243,59.9057060548,DRL_task,1,104,
3,0,3,0,,,5.42229294777,281,84,4,2591.81015491,5,,,,,,,2017_Jul_18_1243,59.9057060548,DRL_task,1,104,
3,0,3,0,,,4.62297105789,281,85,4,2596.43170404,5,,,,,,,2017_Jul_18_1243,59.9057060548,DRL_task,1,104,
3,0,3,0,,,6.02314996719,282,86,4,2602.47174907,5,,,,,,,2017_Jul_18_1243,59.9057060548,DRL_task,1,104,
3,0,3,0,,,,,,,,,"['space', 'space', 'space', 'space', 'space', 'space', 'space', 'space', 'space', 'space', 'space', 'space', 'space', 'space', 'space', 'space', 'space', 'space', 'space', 'space', 'space', 'space', 'space', 'space', 'space', 'space', 'space', 'space', 'space', 'space', 'space', 'space', 'space', 'space', 'space', 'space', 'space', 'space', 'space', 'space', 'space', 'space', 'space', 'space', 'space', 'space', 'space', 'space', 'space', 'space', 'space', 'space', 'space', 'space', 'space', 'space', 'space', 'space', 'space', 'space', 'space', 'space', 'space', 'space', 'space', 'space', 'space', 'space', 'space', 'space', 'space', 'space', 'space', 'space', 'space', 'space', 'space', 'space', 'space', 'space', 'space', 'space', 'space', 'space', 'space', 'space']","[4.838321924209595, 11.544202089309692, 19.135673999786377, 27.19534206390381, 38.723926067352295, 46.49759292602539, 53.23992395401001, 63.96711993217468, 78.86937212944031, 86.79003095626831, 94.04760313034058, 100.02167701721191, 106.47900605201721, 112.81724095344543, 117.2064700126648, 121.96135592460632, 128.2834129333496, 140.02915501594543, 141.3485209941864, 147.38683009147644, 153.89385294914246, 160.08472895622253, 174.33302402496338, 181.3559639453888, 188.21442413330078, 193.685485124588, 198.27507209777832, 204.71511793136597, 213.82337403297424, 222.03333711624146, 228.5734829902649, 240.1178879737854, 250.62896394729614, 256.28605699539185, 264.99488401412964, 271.91769194602966, 278.908527135849, 285.1493179798126, 291.3242220878601, 296.929181098938, 308.2060639858246, 308.7734730243683, 311.1424961090088, 313.44471406936646, 314.19673800468445, 314.9641909599304, 317.5490720272064, 323.62335896492004, 330.5973479747772, 336.97080397605896, 342.29172706604004, 346.9968740940094, 353.9876940250397, 360.22701811790466, 368.40250301361084, 375.7770879268646, 385.6894299983978, 393.2136609554291, 403.69115805625916, 410.19731307029724, 417.43862295150757, 424.4627170562744, 436.1739981174469, 445.3192059993744, 453.6424779891968, 460.51745104789734, 465.82173204421997, 472.5972509384155, 478.117693901062, 483.6903910636902, 490.74943494796753, 499.72393012046814, 509.51772904396057, 516.0081329345703, 526.5033860206604, 536.9478409290314, 544.172562122345, 550.4955739974976, 556.2337739467621, 561.9558510780334, 568.1627900600433, 574.6030690670013, 579.1243159770966, 584.5466089248657, 589.1695799827576, 595.1927299499512]",space,61.7329819202,,,2017_Jul_18_1243,59.9057060548,DRL_task,1,104,
4,0,4,0,,,3.82807517052,282,1,5,2674.04689407,5,,,,,,,2017_Jul_18_1243,59.9057060548,DRL_task,1,104,
4,0,4,0,,,4.75635385513,282,2,5,2678.80185604,5,,,,,,,2017_Jul_18_1243,59.9057060548,DRL_task,1,104,
4,0,4,0,,,6.95727014542,283,3,5,2685.75927091,5,,,,,,,2017_Jul_18_1243,59.9057060548,DRL_task,1,104,
4,0,4,0,,,9.0417599678,284,4,5,2694.802037,5,,,,,,,2017_Jul_18_1243,59.9057060548,DRL_task,1,104,
4,0,4,0,,,6.32347989082,285,5,5,2701.12521696,5,,,,,,,2017_Jul_18_1243,59.9057060548,DRL_task,1,104,
4,0,4,0,,,10.0277919769,286,6,5,2711.15248108,5,,,,,,,2017_Jul_18_1243,59.9057060548,DRL_task,1,104,
4,0,4,0,,,10.0763549805,287,7,5,2721.22988391,5,,,,,,,2017_Jul_18_1243,59.9057060548,DRL_task,1,104,
4,0,4,0,,,6.40708017349,288,8,5,2727.63646007,5,,,,,,,2017_Jul_18_1243,59.9057060548,DRL_task,1,104,
4,0,4,0,,,6.29090499878,289,9,5,2733.92660499,5,,,,,,,2017_Jul_18_1243,59.9057060548,DRL_task,1,104,
4,0,4,0,,,5.88877701759,290,10,5,2739.83267689,5,,,,,,,2017_Jul_18_1243,59.9057060548,DRL_task,1,104,
4,0,4,0,,,9.52631998062,291,11,5,2749.34283209,5,,,,,,,2017_Jul_18_1243,59.9057060548,DRL_task,1,104,
4,0,4,0,,,9.52665281296,292,12,5,2758.86945987,5,,,,,,,2017_Jul_18_1243,59.9057060548,DRL_task,1,104,
4,0,4,0,,,8.59237909317,293,13,5,2767.4613049,5,,,,,,,2017_Jul_18_1243,59.9057060548,DRL_task,1,104,
4,0,4,0,,,9.6616101265,294,14,5,2777.15535498,5,,,,,,,2017_Jul_18_1243,59.9057060548,DRL_task,1,104,
4,0,4,0,,,5.73807287216,295,15,5,2782.86135006,5,,,,,,,2017_Jul_18_1243,59.9057060548,DRL_task,1,104,
4,0,4,0,,,9.87695598602,296,16,5,2792.73853803,5,,,,,,,2017_Jul_18_1243,59.9057060548,DRL_task,1,104,
4,0,4,0,,,8.22708106041,297,17,5,2800.98007488,5,,,,,,,2017_Jul_18_1243,59.9057060548,DRL_task,1,104,
4,0,4,0,,,9.42467093468,298,18,5,2810.39038801,5,,,,,,,2017_Jul_18_1243,59.9057060548,DRL_task,1,104,
4,0,4,0,,,4.67301297188,298,19,5,2815.06178594,5,,,,,,,2017_Jul_18_1243,59.9057060548,DRL_task,1,104,
4,0,4,0,,,5.87157011032,299,20,5,2820.93482494,5,,,,,,,2017_Jul_18_1243,59.9057060548,DRL_task,1,104,
4,0,4,0,,,5.85727000237,300,21,5,2826.79096389,5,,,,,,,2017_Jul_18_1243,59.9057060548,DRL_task,1,104,
4,0,4,0,,,9.82563400269,301,22,5,2836.65139198,5,,,,,,,2017_Jul_18_1243,59.9057060548,DRL_task,1,104,
4,0,4,0,,,5.32238507271,302,23,5,2841.97347689,5,,,,,,,2017_Jul_18_1243,59.9057060548,DRL_task,1,104,
4,0,4,0,,,8.84439277649,303,24,5,2850.79922295,5,,,,,,,2017_Jul_18_1243,59.9057060548,DRL_task,1,104,
4,0,4,0,,,6.57229208946,304,25,5,2857.35632706,5,,,,,,,2017_Jul_18_1243,59.9057060548,DRL_task,1,104,
4,0,4,0,,,4.03749203682,304,26,5,2861.41069102,5,,,,,,,2017_Jul_18_1243,59.9057060548,DRL_task,1,104,
4,0,4,0,,,6.12287592888,305,27,5,2867.51701808,5,,,,,,,2017_Jul_18_1243,59.9057060548,DRL_task,1,104,
4,0,4,0,,,5.67271995544,306,28,5,2873.18971992,5,,,,,,,2017_Jul_18_1243,59.9057060548,DRL_task,1,104,
4,0,4,0,,,7.55788207054,307,29,5,2880.74772596,5,,,,,,,2017_Jul_18_1243,59.9057060548,DRL_task,1,104,
4,0,4,0,,,4.63846111298,307,30,5,2885.38580298,5,,,,,,,2017_Jul_18_1243,59.9057060548,DRL_task,1,104,
4,0,4,0,,,5.84040594101,308,31,5,2891.22519088,5,,,,,,,2017_Jul_18_1243,59.9057060548,DRL_task,1,104,
4,0,4,0,,,4.404763937,308,32,5,2895.6468401,5,,,,,,,2017_Jul_18_1243,59.9057060548,DRL_task,1,104,
4,0,4,0,,,6.90765714645,309,33,5,2902.554286,5,,,,,,,2017_Jul_18_1243,59.9057060548,DRL_task,1,104,
4,0,4,0,,,9.99218297005,310,34,5,2912.53102088,5,,,,,,,2017_Jul_18_1243,59.9057060548,DRL_task,1,104,
4,0,4,0,,,12.4643750191,311,35,5,2925.01110506,5,,,,,,,2017_Jul_18_1243,59.9057060548,DRL_task,1,104,
4,0,4,0,,,6.23980379105,312,36,5,2931.23421597,5,,,,,,,2017_Jul_18_1243,59.9057060548,DRL_task,1,104,
4,0,4,0,,,6.4718542099,313,37,5,2937.72440195,5,,,,,,,2017_Jul_18_1243,59.9057060548,DRL_task,1,104,
4,0,4,0,,,7.84210801125,314,38,5,2945.54934692,5,,,,,,,2017_Jul_18_1243,59.9057060548,DRL_task,1,104,
4,0,4,0,,,12.4814269543,315,39,5,2958.04571795,5,,,,,,,2017_Jul_18_1243,59.9057060548,DRL_task,1,104,
4,0,4,0,,,9.65988183022,316,40,5,2967.72263503,5,,,,,,,2017_Jul_18_1243,59.9057060548,DRL_task,1,104,
4,0,4,0,,,8.09061717987,317,41,5,2975.78091502,5,,,,,,,2017_Jul_18_1243,59.9057060548,DRL_task,1,104,
4,0,4,0,,,7.04072499275,318,42,5,2982.83848906,5,,,,,,,2017_Jul_18_1243,59.9057060548,DRL_task,1,104,
4,0,4,0,,,4.80501484871,318,43,5,2987.64344907,5,,,,,,,2017_Jul_18_1243,59.9057060548,DRL_task,1,104,
4,0,4,0,,,5.80613899231,319,44,5,2993.43285894,5,,,,,,,2017_Jul_18_1243,59.9057060548,DRL_task,1,104,
4,0,4,0,,,7.30750012398,320,45,5,3000.74062896,5,,,,,,,2017_Jul_18_1243,59.9057060548,DRL_task,1,104,
4,0,4,0,,,6.65702986717,321,46,5,3007.41440701,5,,,,,,,2017_Jul_18_1243,59.9057060548,DRL_task,1,104,
4,0,4,0,,,6.50802898407,322,47,5,3013.92111087,5,,,,,,,2017_Jul_18_1243,59.9057060548,DRL_task,1,104,
4,0,4,0,,,5.88955712318,323,48,5,3019.81055307,5,,,,,,,2017_Jul_18_1243,59.9057060548,DRL_task,1,104,
4,0,4,0,,,7.17294502258,324,49,5,3026.96823406,5,,,,,,,2017_Jul_18_1243,59.9057060548,DRL_task,1,104,
4,0,4,0,,,8.60884189606,325,50,5,3035.610461,5,,,,,,,2017_Jul_18_1243,59.9057060548,DRL_task,1,104,
4,0,4,0,,,6.4086561203,326,51,5,3042.00062299,5,,,,,,,2017_Jul_18_1243,59.9057060548,DRL_task,1,104,
4,0,4,0,,,8.97453904152,327,52,5,3050.95987701,5,,,,,,,2017_Jul_18_1243,59.9057060548,DRL_task,1,104,
4,0,4,0,,,5.6407828331,328,53,5,3056.61595488,5,,,,,,,2017_Jul_18_1243,59.9057060548,DRL_task,1,104,
4,0,4,0,,,5.85605597496,329,54,5,3062.47225404,5,,,,,,,2017_Jul_18_1243,59.9057060548,DRL_task,1,104,
4,0,4,0,,,5.20548009872,330,55,5,3067.67781687,5,,,,,,,2017_Jul_18_1243,59.9057060548,DRL_task,1,104,
4,0,4,0,,,5.85632205009,331,56,5,3073.53368306,5,,,,,,,2017_Jul_18_1243,59.9057060548,DRL_task,1,104,
4,0,4,0,,,5.60574388504,332,57,5,3079.13966703,5,,,,,,,2017_Jul_18_1243,59.9057060548,DRL_task,1,104,
4,0,4,0,,,5.35550498962,333,58,5,3084.49526691,5,,,,,,,2017_Jul_18_1243,59.9057060548,DRL_task,1,104,
4,0,4,0,,,0.300448179245,333,59,5,3084.7957499,5,,,,,,,2017_Jul_18_1243,59.9057060548,DRL_task,1,104,
4,0,4,0,,,4.22114086151,333,60,5,3089.01692295,5,,,,,,,2017_Jul_18_1243,59.9057060548,DRL_task,1,104,
4,0,4,0,,,4.7536380291,333,61,5,3093.771662,5,,,,,,,2017_Jul_18_1243,59.9057060548,DRL_task,1,104,
4,0,4,0,,,6.14127206802,334,62,5,3099.9114449,5,,,,,,,2017_Jul_18_1243,59.9057060548,DRL_task,1,104,
4,0,4,0,,,5.78922700882,335,63,5,3105.70103192,5,,,,,,,2017_Jul_18_1243,59.9057060548,DRL_task,1,104,
4,0,4,0,,,9.89222192764,336,64,5,3115.57799506,5,,,,,,,2017_Jul_18_1243,59.9057060548,DRL_task,1,104,
4,0,4,0,,,6.67535305023,337,65,5,3122.26848698,5,,,,,,,2017_Jul_18_1243,59.9057060548,DRL_task,1,104,
4,0,4,0,,,9.46002388,338,66,5,3131.72823596,5,,,,,,,2017_Jul_18_1243,59.9057060548,DRL_task,1,104,
4,0,4,0,,,7.50769019127,339,67,5,3139.23628807,5,,,,,,,2017_Jul_18_1243,59.9057060548,DRL_task,1,104,
4,0,4,0,,,7.64084482193,340,68,5,3146.87772799,5,,,,,,,2017_Jul_18_1243,59.9057060548,DRL_task,1,104,
4,0,4,0,,,7.74058318138,341,69,5,3154.6021831,5,,,,,,,2017_Jul_18_1243,59.9057060548,DRL_task,1,104,
4,0,4,0,,,0.200861930847,341,70,5,3154.819417,5,,,,,,,2017_Jul_18_1243,59.9057060548,DRL_task,1,104,
4,0,4,0,,,6.8730430603,342,71,5,3161.69338393,5,,,,,,,2017_Jul_18_1243,59.9057060548,DRL_task,1,104,
4,0,4,0,,,4.65599393845,342,72,5,3166.34815001,5,,,,,,,2017_Jul_18_1243,59.9057060548,DRL_task,1,104,
4,0,4,0,,,6.3390288353,343,73,5,3172.68781996,5,,,,,,,2017_Jul_18_1243,59.9057060548,DRL_task,1,104,
4,0,4,0,,,9.17791509628,344,74,5,3181.86438799,5,,,,,,,2017_Jul_18_1243,59.9057060548,DRL_task,1,104,
4,0,4,0,,,0.232404947281,344,75,5,3182.08131909,5,,,,,,,2017_Jul_18_1243,59.9057060548,DRL_task,1,104,
4,0,4,0,,,6.10768198967,345,76,5,3188.20432901,5,,,,,,,2017_Jul_18_1243,59.9057060548,DRL_task,1,104,
4,0,4,0,,,5.15503406525,346,77,5,3193.35987997,5,,,,,,,2017_Jul_18_1243,59.9057060548,DRL_task,1,104,
4,0,4,0,,,4.30473995209,346,78,5,3197.66442704,5,,,,,,,2017_Jul_18_1243,59.9057060548,DRL_task,1,104,
4,0,4,0,,,4.48788714409,346,79,5,3202.15235209,5,,,,,,,2017_Jul_18_1243,59.9057060548,DRL_task,1,104,
4,0,4,0,,,4.63869690895,346,80,5,3206.79046988,5,,,,,,,2017_Jul_18_1243,59.9057060548,DRL_task,1,104,
4,0,4,0,,,7.37406897545,347,81,5,3214.1649971,5,,,,,,,2017_Jul_18_1243,59.9057060548,DRL_task,1,104,
4,0,4,0,,,7.20777010918,348,82,5,3221.37260795,5,,,,,,,2017_Jul_18_1243,59.9057060548,DRL_task,1,104,
4,0,4,0,,,0.265168905258,348,83,5,3221.63958287,5,,,,,,,2017_Jul_18_1243,59.9057060548,DRL_task,1,104,
4,0,4,0,,,6.23992395401,349,84,5,3227.86275196,5,,,,,,,2017_Jul_18_1243,59.9057060548,DRL_task,1,104,
4,0,4,0,,,10.3456201553,350,85,5,3238.2237649,5,,,,,,,2017_Jul_18_1243,59.9057060548,DRL_task,1,104,
4,0,4,0,,,12.0794830322,351,86,5,3250.30276299,5,,,,,,,2017_Jul_18_1243,59.9057060548,DRL_task,1,104,
4,0,4,0,,,14.0148098469,352,87,5,3264.31768107,5,,,,,,,2017_Jul_18_1243,59.9057060548,DRL_task,1,104,
4,0,4,0,,,5.47101211548,353,88,5,3269.77335095,5,,,,,,,2017_Jul_18_1243,59.9057060548,DRL_task,1,104,
4,0,4,0,,,,,,,,,"['space', 'space', 'space', 'space', 'space', 'space', 'space', 'space', 'space', 'space', 'space', 'space', 'space', 'space', 'space', 'space', 'space', 'space', 'space', 'space', 'space', 'space', 'space', 'space', 'space', 'space', 'space', 'space', 'space', 'space', 'space', 'space', 'space', 'space', 'space', 'space', 'space', 'space', 'space', 'space', 'space', 'space', 'space', 'space', 'space', 'space', 'space', 'space', 'space', 'space', 'space', 'space', 'space', 'space', 'space', 'space', 'space', 'space', 'space', 'space', 'space', 'space', 'space', 'space', 'space', 'space', 'space', 'space', 'space', 'space', 'space', 'space', 'space', 'space', 'space', 'space', 'space', 'space', 'space', 'space', 'space', 'space', 'space', 'space', 'space', 'space', 'space', 'space']","[3.8280751705169678, 8.584429025650024, 15.541699171066284, 24.58345913887024, 30.906939029693604, 40.934731006622314, 51.011085987091064, 57.418166160583496, 63.70907115936279, 69.59784817695618, 79.12416815757751, 88.65082097053528, 97.24320006370544, 106.9048101902008, 112.64288306236267, 122.51983904838562, 130.74692010879517, 140.1715910434723, 144.84460401535034, 150.7161741256714, 156.5734441280365, 166.39907813072205, 171.72146320343018, 180.56585597991943, 187.1381480693817, 191.17564010620117, 197.29851603507996, 202.9712359905243, 210.52911806106567, 215.16757917404175, 221.00798511505127, 225.41274905204773, 232.3204061985016, 242.31258916854858, 254.77696418762207, 261.0167679786682, 267.4886221885681, 275.33073019981384, 287.81215715408325, 297.4720389842987, 305.5626561641693, 312.6033811569214, 317.4083960056305, 323.21453499794006, 330.5220351219177, 337.17906498908997, 343.6870939731598, 349.576651096344, 356.749596118927, 365.35843801498413, 371.7670941352844, 380.7416331768036, 386.38241600990295, 392.2384719848633, 397.44395208358765, 403.30027413368225, 408.90601801872253, 414.26152300834656, 414.56197118759155, 418.7831120491028, 423.5367500782013, 429.678022146225, 435.46724915504456, 445.3594710826874, 452.0348241329193, 461.4948480129242, 469.0025382041931, 476.64338302612305, 484.3839662075043, 484.58482813835144, 491.4578711986542, 496.1138651371002, 502.45289397239685, 511.6308090686798, 511.8632140159607, 517.9708960056305, 523.1259300708771, 527.4306700229645, 531.9185571670532, 536.557254076004, 543.9313230514526, 551.1390931606293, 551.4042620658875, 557.6441860198975, 567.9898061752319, 580.0692892074585, 594.0840990543365, 599.5551111698151]",space,66.2378709316,,,2017_Jul_18_1243,59.9057060548,DRL_task,1,104,
5,0,5,0,,,5.83880615234,354,1,6,3343.50111389,5,,,,,,,2017_Jul_18_1243,59.9057060548,DRL_task,1,104,
5,0,5,0,,,5.59069395065,355,2,6,3349.09023905,5,,,,,,,2017_Jul_18_1243,59.9057060548,DRL_task,1,104,
5,0,5,0,,,5.82294797897,356,3,6,3354.91325092,5,,,,,,,2017_Jul_18_1243,59.9057060548,DRL_task,1,104,
5,0,5,0,,,4.67174196243,356,4,6,3359.58457994,5,,,,,,,2017_Jul_18_1243,59.9057060548,DRL_task,1,104,
5,0,5,0,,,8.34177613258,357,5,6,3367.92687297,5,,,,,,,2017_Jul_18_1243,59.9057060548,DRL_task,1,104,
5,0,5,0,,,8.24082589149,358,6,6,3376.1519351,5,,,,,,,2017_Jul_18_1243,59.9057060548,DRL_task,1,104,
5,0,5,0,,,5.95602798462,359,7,6,3382.108495,5,,,,,,,2017_Jul_18_1243,59.9057060548,DRL_task,1,104,
5,0,5,0,,,6.25769901276,360,8,6,3388.38229203,5,,,,,,,2017_Jul_18_1243,59.9057060548,DRL_task,1,104,
5,0,5,0,,,6.55595111847,361,9,6,3394.93847704,5,,,,,,,2017_Jul_18_1243,59.9057060548,DRL_task,1,104,
5,0,5,0,,,6.17476081848,362,10,6,3401.11157107,5,,,,,,,2017_Jul_18_1243,59.9057060548,DRL_task,1,104,
5,0,5,0,,,7.84128499031,363,11,6,3408.95334792,5,,,,,,,2017_Jul_18_1243,59.9057060548,DRL_task,1,104,
5,0,5,0,,,7.20716810226,364,12,6,3416.160923,5,,,,,,,2017_Jul_18_1243,59.9057060548,DRL_task,1,104,
5,0,5,0,,,6.17364192009,365,13,6,3422.3336699,5,,,,,,,2017_Jul_18_1243,59.9057060548,DRL_task,1,104,
5,0,5,0,,,8.2420501709,366,14,6,3430.57618594,5,,,,,,,2017_Jul_18_1243,59.9057060548,DRL_task,1,104,
5,0,5,0,,,7.27450299263,367,15,6,3437.85028887,5,,,,,,,2017_Jul_18_1243,59.9057060548,DRL_task,1,104,
5,0,5,0,,,7.19091296196,368,16,6,3445.04120207,5,,,,,,,2017_Jul_18_1243,59.9057060548,DRL_task,1,104,
5,0,5,0,,,8.20704889297,369,17,6,3453.2498281,5,,,,,,,2017_Jul_18_1243,59.9057060548,DRL_task,1,104,
5,0,5,0,,,6.85706806183,370,18,6,3460.10725904,5,,,,,,,2017_Jul_18_1243,59.9057060548,DRL_task,1,104,
5,0,5,0,,,8.37547898293,371,19,6,3468.48273206,5,,,,,,,2017_Jul_18_1243,59.9057060548,DRL_task,1,104,
5,0,5,0,,,6.64041209221,372,20,6,3475.12294102,5,,,,,,,2017_Jul_18_1243,59.9057060548,DRL_task,1,104,
5,0,5,0,,,11.7638850212,373,21,6,3486.88523793,5,,,,,,,2017_Jul_18_1243,59.9057060548,DRL_task,1,104,
5,0,5,0,,,12.3964300156,374,22,6,3499.28172588,5,,,,,,,2017_Jul_18_1243,59.9057060548,DRL_task,1,104,
5,0,5,0,,,10.6763978004,375,23,6,3509.95951891,5,,,,,,,2017_Jul_18_1243,59.9057060548,DRL_task,1,104,
5,0,5,0,,,6.10749816895,376,24,6,3516.06597996,5,,,,,,,2017_Jul_18_1243,59.9057060548,DRL_task,1,104,
5,0,5,0,,,6.3389248848,377,25,6,3522.40551901,5,,,,,,,2017_Jul_18_1243,59.9057060548,DRL_task,1,104,
5,0,5,0,,,6.34170007706,378,26,6,3528.74585795,5,,,,,,,2017_Jul_18_1243,59.9057060548,DRL_task,1,104,
5,0,5,0,,,5.10310506821,379,27,6,3533.85151196,5,,,,,,,2017_Jul_18_1243,59.9057060548,DRL_task,1,104,
5,0,5,0,,,6.10811877251,380,28,6,3539.95792198,5,,,,,,,2017_Jul_18_1243,59.9057060548,DRL_task,1,104,
5,0,5,0,,,5.15558004379,381,29,6,3545.11334896,5,,,,,,,2017_Jul_18_1243,59.9057060548,DRL_task,1,104,
5,0,5,0,,,5.37254905701,382,30,6,3550.485497,5,,,,,,,2017_Jul_18_1243,59.9057060548,DRL_task,1,104,
5,0,5,0,,,6.83903503418,383,31,6,3557.32603002,5,,,,,,,2017_Jul_18_1243,59.9057060548,DRL_task,1,104,
5,0,5,0,,,8.79369497299,384,32,6,3566.118577,5,,,,,,,2017_Jul_18_1243,59.9057060548,DRL_task,1,104,
5,0,5,0,,,8.40918397903,385,33,6,3574.52760601,5,,,,,,,2017_Jul_18_1243,59.9057060548,DRL_task,1,104,
5,0,5,0,,,6.1399230957,386,34,6,3580.66686201,5,,,,,,,2017_Jul_18_1243,59.9057060548,DRL_task,1,104,
5,0,5,0,,,9.37616491318,387,35,6,3590.04381108,5,,,,,,,2017_Jul_18_1243,59.9057060548,DRL_task,1,104,
5,0,5,0,,,5.45597100258,388,36,6,3595.4997251,5,,,,,,,2017_Jul_18_1243,59.9057060548,DRL_task,1,104,
5,0,5,0,,,5.50542092323,389,37,6,3601.00526595,5,,,,,,,2017_Jul_18_1243,59.9057060548,DRL_task,1,104,
5,0,5,0,,,5.50618505478,390,38,6,3606.51127291,5,,,,,,,2017_Jul_18_1243,59.9057060548,DRL_task,1,104,
5,0,5,0,,,8.69247102737,391,39,6,3615.20360708,5,,,,,,,2017_Jul_18_1243,59.9057060548,DRL_task,1,104,
5,0,5,0,,,9.37679290771,392,40,6,3624.58011603,5,,,,,,,2017_Jul_18_1243,59.9057060548,DRL_task,1,104,
5,0,5,0,,,5.18697118759,393,41,6,3629.76908207,5,,,,,,,2017_Jul_18_1243,59.9057060548,DRL_task,1,104,
5,0,5,0,,,4.83818984032,393,42,6,3634.60768294,5,,,,,,,2017_Jul_18_1243,59.9057060548,DRL_task,1,104,
5,0,5,0,,,8.5257999897,394,43,6,3643.1331861,5,,,,,,,2017_Jul_18_1243,59.9057060548,DRL_task,1,104,
5,0,5,0,,,10.3457071781,395,44,6,3653.47737193,5,,,,,,,2017_Jul_18_1243,59.9057060548,DRL_task,1,104,
5,0,5,0,,,10.0425879955,396,45,6,3663.52129388,5,,,,,,,2017_Jul_18_1243,59.9057060548,DRL_task,1,104,
5,0,5,0,,,8.06005883217,397,46,6,3671.57962203,5,,,,,,,2017_Jul_18_1243,59.9057060548,DRL_task,1,104,
5,0,5,0,,,5.3207461834,398,47,6,3676.90150809,5,,,,,,,2017_Jul_18_1243,59.9057060548,DRL_task,1,104,
5,0,5,0,,,5.39061880112,399,48,6,3682.29090309,5,,,,,,,2017_Jul_18_1243,59.9057060548,DRL_task,1,104,
5,0,5,0,,,3.75334000587,399,49,6,3686.04499197,5,,,,,,,2017_Jul_18_1243,59.9057060548,DRL_task,1,104,
5,0,5,0,,,5.5396630764,400,50,6,3691.58360195,5,,,,,,,2017_Jul_18_1243,59.9057060548,DRL_task,1,104,
5,0,5,0,,,9.07618403435,401,51,6,3700.66043305,5,,,,,,,2017_Jul_18_1243,59.9057060548,DRL_task,1,104,
5,0,5,0,,,6.23997497559,402,52,6,3706.90015388,5,,,,,,,2017_Jul_18_1243,59.9057060548,DRL_task,1,104,
5,0,5,0,,,5.65443897247,403,53,6,3712.55604196,5,,,,,,,2017_Jul_18_1243,59.9057060548,DRL_task,1,104,
5,0,5,0,,,7.10907292366,404,54,6,3719.66314387,5,,,,,,,2017_Jul_18_1243,59.9057060548,DRL_task,1,104,
5,0,5,0,,,5.70587706566,405,55,6,3725.36961699,5,,,,,,,2017_Jul_18_1243,59.9057060548,DRL_task,1,104,
5,0,5,0,,,5.65598511696,406,56,6,3731.02549505,5,,,,,,,2017_Jul_18_1243,59.9057060548,DRL_task,1,104,
5,0,5,0,,,6.13825297356,407,57,6,3737.16493702,5,,,,,,,2017_Jul_18_1243,59.9057060548,DRL_task,1,104,
5,0,5,0,,,4.93843197823,407,58,6,3742.10408306,5,,,,,,,2017_Jul_18_1243,59.9057060548,DRL_task,1,104,
5,0,5,0,,,5.99101400375,408,59,6,3748.09365106,5,,,,,,,2017_Jul_18_1243,59.9057060548,DRL_task,1,104,
5,0,5,0,,,1.86852288246,408,60,6,3749.96233892,5,,,,,,,2017_Jul_18_1243,59.9057060548,DRL_task,1,104,
5,0,5,0,,,4.33683204651,408,61,6,3754.30016303,5,,,,,,,2017_Jul_18_1243,59.9057060548,DRL_task,1,104,
5,0,5,0,,,2.17035007477,408,62,6,3756.46914196,5,,,,,,,2017_Jul_18_1243,59.9057060548,DRL_task,1,104,
5,0,5,0,,,0.500726938248,408,63,6,3756.96936989,5,,,,,,,2017_Jul_18_1243,59.9057060548,DRL_task,1,104,
5,0,5,0,,,3.56863307953,408,64,6,3760.5401721,5,,,,,,,2017_Jul_18_1243,59.9057060548,DRL_task,1,104,
5,0,5,0,,,6.5737888813,409,65,6,3767.11357307,5,,,,,,,2017_Jul_18_1243,59.9057060548,DRL_task,1,104,
5,0,5,0,,,8.47679901123,410,66,6,3775.58934307,5,,,,,,,2017_Jul_18_1243,59.9057060548,DRL_task,1,104,
5,0,5,0,,,7.50825715065,411,67,6,3783.09709096,5,,,,,,,2017_Jul_18_1243,59.9057060548,DRL_task,1,104,
5,0,5,0,,,9.94361495972,412,68,6,3793.04088187,5,,,,,,,2017_Jul_18_1243,59.9057060548,DRL_task,1,104,
5,0,5,0,,,5.78799891472,413,69,6,3798.83026695,5,,,,,,,2017_Jul_18_1243,59.9057060548,DRL_task,1,104,
5,0,5,0,,,5.87438797951,414,70,6,3804.70313406,5,,,,,,,2017_Jul_18_1243,59.9057060548,DRL_task,1,104,
5,0,5,0,,,9.30965614319,415,71,6,3814.01314688,5,,,,,,,2017_Jul_18_1243,59.9057060548,DRL_task,1,104,
5,0,5,0,,,5.53764390945,416,72,6,3819.55237198,5,,,,,,,2017_Jul_18_1243,59.9057060548,DRL_task,1,104,
5,0,5,0,,,6.87404990196,417,73,6,3826.42638397,5,,,,,,,2017_Jul_18_1243,59.9057060548,DRL_task,1,104,
5,0,5,0,,,4.87309598923,417,74,6,3831.29796505,5,,,,,,,2017_Jul_18_1243,59.9057060548,DRL_task,1,104,
5,0,5,0,,,7.27451920509,418,75,6,3838.5723269,5,,,,,,,2017_Jul_18_1243,59.9057060548,DRL_task,1,104,
5,0,5,0,,,6.58872485161,419,76,6,3845.16266894,5,,,,,,,2017_Jul_18_1243,59.9057060548,DRL_task,1,104,
5,0,5,0,,,4.17273592949,419,77,6,3849.333534,5,,,,,,,2017_Jul_18_1243,59.9057060548,DRL_task,1,104,
5,0,5,0,,,10.1938180923,420,78,6,3859.52762294,5,,,,,,,2017_Jul_18_1243,59.9057060548,DRL_task,1,104,
5,0,5,0,,,7.70669698715,421,79,6,3867.23580909,5,,,,,,,2017_Jul_18_1243,59.9057060548,DRL_task,1,104,
5,0,5,0,,,11.4121239185,422,80,6,3878.647825,5,,,,,,,2017_Jul_18_1243,59.9057060548,DRL_task,1,104,
5,0,5,0,,,9.64504718781,423,81,6,3888.29114008,5,,,,,,,2017_Jul_18_1243,59.9057060548,DRL_task,1,104,
5,0,5,0,,,5.17206597328,424,82,6,3893.46347189,5,,,,,,,2017_Jul_18_1243,59.9057060548,DRL_task,1,104,
5,0,5,0,,,5.85628795624,425,83,6,3899.31945705,5,,,,,,,2017_Jul_18_1243,59.9057060548,DRL_task,1,104,
5,0,5,0,,,6.30499696732,426,84,6,3905.62622809,5,,,,,,,2017_Jul_18_1243,59.9057060548,DRL_task,1,104,
5,0,5,0,,,5.92434000969,427,85,6,3911.54917002,5,,,,,,,2017_Jul_18_1243,59.9057060548,DRL_task,1,104,
5,0,5,0,,,5.5222890377,428,86,6,3917.07147503,5,,,,,,,2017_Jul_18_1243,59.9057060548,DRL_task,1,104,
5,0,5,0,,,6.4053709507,429,87,6,3923.47838998,5,,,,,,,2017_Jul_18_1243,59.9057060548,DRL_task,1,104,
5,0,5,0,,,4.38792300224,429,88,6,3927.86628008,5,,,,,,,2017_Jul_18_1243,59.9057060548,DRL_task,1,104,
5,0,5,0,,,8.52579402924,430,89,6,3936.39180207,5,,,,,,,2017_Jul_18_1243,59.9057060548,DRL_task,1,104,
5,0,5,0,,,,,,,,,"['space', 'space', 'space', 'space', 'space', 'space', 'space', 'space', 'space', 'space', 'space', 'space', 'space', 'space', 'space', 'space', 'space', 'space', 'space', 'space', 'space', 'space', 'space', 'space', 'space', 'space', 'space', 'space', 'space', 'space', 'space', 'space', 'space', 'space', 'space', 'space', 'space', 'space', 'space', 'space', 'space', 'space', 'space', 'space', 'space', 'space', 'space', 'space', 'space', 'space', 'space', 'space', 'space', 'space', 'space', 'space', 'space', 'space', 'space', 'space', 'space', 'space', 'space', 'space', 'space', 'space', 'space', 'space', 'space', 'space', 'space', 'space', 'space', 'space', 'space', 'space', 'space', 'space', 'space', 'space', 'space', 'space', 'space', 'space', 'space', 'space', 'space', 'space', 'space']","[5.83880615234375, 11.429500102996826, 17.252448081970215, 21.924190044403076, 30.265966176986694, 38.506792068481445, 44.462820053100586, 50.720519065856934, 57.27647018432617, 63.45123100280762, 71.29251599311829, 78.49968409538269, 84.67332601547241, 92.91537618637085, 100.18987917900085, 107.3807921409607, 115.58784103393555, 122.44490909576416, 130.82038807868958, 137.46080017089844, 149.22468519210815, 161.62111520767212, 172.29751300811768, 178.405011177063, 184.74393606185913, 191.08563613891602, 196.1887412071228, 202.29685997962952, 207.45244002342224, 212.82498908042908, 219.66402411460876, 228.4577190876007, 236.86690306663513, 243.00682616233826, 252.38299107551575, 257.8389620780945, 263.3443830013275, 268.85056805610657, 277.54303908348083, 286.9198319911957, 292.10680317878723, 296.944993019104, 305.4707930088043, 315.81650018692017, 325.85908818244934, 333.9191470146179, 339.2398931980133, 344.63051199913025, 348.3838520050049, 353.92351508140564, 362.9996991157532, 369.2396740913391, 374.89411306381226, 382.00318598747253, 387.7090630531311, 393.3650481700897, 399.50330114364624, 404.44173312187195, 410.4327471256256, 412.30127000808716, 416.63810205459595, 418.808452129364, 419.3091790676117, 422.8778121471405, 429.4516010284424, 437.92840003967285, 445.4366571903229, 455.3802721500397, 461.1682710647583, 467.04265904426575, 476.3523151874542, 481.88995909690857, 488.76400899887085, 493.63710498809814, 500.9116241931915, 507.5003490447998, 511.67308497428894, 521.8669030666351, 529.5736000537872, 540.9857239723206, 550.6307711601257, 555.8028371334076, 561.6591250896454, 567.9641220569611, 573.8884620666504, 579.4107511043549, 585.8161220550537, 590.2040450572968, 598.7298390865326]",space,63.3357400894,,,2017_Jul_18_1243,59.9057060548,DRL_task,1,104,
,,,,,,,,,,,,,,,,space,2.07060289383,2017_Jul_18_1243,59.9057060548,DRL_task,1,104,
