experiment.thisRepN,experiment.thisTrialN,experiment.thisN,experiment.thisIndex,instructions_key.keys,instructions_key.rt,rt,score,response_number,block_number,time,interval,response.keys,response.rt,break_key.keys,break_key.rt,closing_key.keys,closing_key.rt,date,frameRate,expName,session,participant,
,,,,space,97.756346941,,,,,,,,,,,,,2017_Aug_01_1043,59.8959536747,DRL_task,1,105,
0,0,0,0,,,8.85754990578,1,1,1,107.820873022,5,,,,,,,2017_Aug_01_1043,59.8959536747,DRL_task,1,105,
0,0,0,0,,,3.58715009689,1,2,1,111.408137083,5,,,,,,,2017_Aug_01_1043,59.8959536747,DRL_task,1,105,
0,0,0,0,,,2.61944198608,1,3,1,114.027358055,5,,,,,,,2017_Aug_01_1043,59.8959536747,DRL_task,1,105,
0,0,0,0,,,3.80254888535,1,4,1,117.831391096,5,,,,,,,2017_Aug_01_1043,59.8959536747,DRL_task,1,105,
0,0,0,0,,,1.06901407242,1,5,1,118.899250984,5,,,,,,,2017_Aug_01_1043,59.8959536747,DRL_task,1,105,
0,0,0,0,,,2.35239601135,1,6,1,121.251868963,5,,,,,,,2017_Aug_01_1043,59.8959536747,DRL_task,1,105,
0,0,0,0,,,5.17229700089,2,7,1,126.424008131,5,,,,,,,2017_Aug_01_1043,59.8959536747,DRL_task,1,105,
0,0,0,0,,,4.97168803215,2,8,1,131.395831108,5,,,,,,,2017_Aug_01_1043,59.8959536747,DRL_task,1,105,
0,0,0,0,,,3.73599600792,2,9,1,135.133172035,5,,,,,,,2017_Aug_01_1043,59.8959536747,DRL_task,1,105,
0,0,0,0,,,5.8738629818,3,10,1,141.006076097,5,,,,,,,2017_Aug_01_1043,59.8959536747,DRL_task,1,105,
0,0,0,0,,,9.3754940033,4,11,1,150.382503986,5,,,,,,,2017_Aug_01_1043,59.8959536747,DRL_task,1,105,
0,0,0,0,,,21.2902898788,5,12,1,171.671548128,5,,,,,,,2017_Aug_01_1043,59.8959536747,DRL_task,1,105,
0,0,0,0,,,25.159840107,6,13,1,196.831357956,5,,,,,,,2017_Aug_01_1043,59.8959536747,DRL_task,1,105,
0,0,0,0,,,6.87406587601,7,14,1,203.705104113,5,,,,,,,2017_Aug_01_1043,59.8959536747,DRL_task,1,105,
0,0,0,0,,,2.75255894661,7,15,1,206.458171129,5,,,,,,,2017_Aug_01_1043,59.8959536747,DRL_task,1,105,
0,0,0,0,,,4.0867331028,7,16,1,210.545683146,5,,,,,,,2017_Aug_01_1043,59.8959536747,DRL_task,1,105,
0,0,0,0,,,5.57380390167,8,17,1,216.118103981,5,,,,,,,2017_Aug_01_1043,59.8959536747,DRL_task,1,105,
0,0,0,0,,,4.80537414551,8,18,1,220.923243046,5,,,,,,,2017_Aug_01_1043,59.8959536747,DRL_task,1,105,
0,0,0,0,,,5.83881306648,9,19,1,226.762676954,5,,,,,,,2017_Aug_01_1043,59.8959536747,DRL_task,1,105,
0,0,0,0,,,4.60520100594,9,20,1,231.367664099,5,,,,,,,2017_Aug_01_1043,59.8959536747,DRL_task,1,105,
0,0,0,0,,,5.10410284996,10,21,1,236.47300005,5,,,,,,,2017_Aug_01_1043,59.8959536747,DRL_task,1,105,
0,0,0,0,,,4.78962612152,10,22,1,241.261474133,5,,,,,,,2017_Aug_01_1043,59.8959536747,DRL_task,1,105,
0,0,0,0,,,1.41812682152,10,23,1,242.679406166,5,,,,,,,2017_Aug_01_1043,59.8959536747,DRL_task,1,105,
0,0,0,0,,,4.3197851181,10,24,1,247.000831127,5,,,,,,,2017_Aug_01_1043,59.8959536747,DRL_task,1,105,
0,0,0,0,,,6.72536897659,11,25,1,253.724442005,5,,,,,,,2017_Aug_01_1043,59.8959536747,DRL_task,1,105,
0,0,0,0,,,5.72089409828,12,26,1,259.446779013,5,,,,,,,2017_Aug_01_1043,59.8959536747,DRL_task,1,105,
0,0,0,0,,,3.37289381027,12,27,1,262.833996058,5,,,,,,,2017_Aug_01_1043,59.8959536747,DRL_task,1,105,
0,0,0,0,,,4.20186305046,12,28,1,267.021728039,5,,,,,,,2017_Aug_01_1043,59.8959536747,DRL_task,1,105,
0,0,0,0,,,4.33779501915,12,29,1,271.359801054,5,,,,,,,2017_Aug_01_1043,59.8959536747,DRL_task,1,105,
0,0,0,0,,,4.93969893456,12,30,1,276.298340082,5,,,,,,,2017_Aug_01_1043,59.8959536747,DRL_task,1,105,
0,0,0,0,,,6.68939399719,13,31,1,282.988700151,5,,,,,,,2017_Aug_01_1043,59.8959536747,DRL_task,1,105,
0,0,0,0,,,1.48583316803,13,32,1,284.473302126,5,,,,,,,2017_Aug_01_1043,59.8959536747,DRL_task,1,105,
0,0,0,0,,,4.15503287315,13,33,1,288.627868176,5,,,,,,,2017_Aug_01_1043,59.8959536747,DRL_task,1,105,
0,0,0,0,,,7.6064209938,14,34,1,296.235980034,5,,,,,,,2017_Aug_01_1043,59.8959536747,DRL_task,1,105,
0,0,0,0,,,5.50684094429,15,35,1,301.741752148,5,,,,,,,2017_Aug_01_1043,59.8959536747,DRL_task,1,105,
0,0,0,0,,,4.88765907288,15,36,1,306.630175114,5,,,,,,,2017_Aug_01_1043,59.8959536747,DRL_task,1,105,
0,0,0,0,,,4.989839077,15,37,1,311.618267059,5,,,,,,,2017_Aug_01_1043,59.8959536747,DRL_task,1,105,
0,0,0,0,,,5.57219290733,16,38,1,317.191395044,5,,,,,,,2017_Aug_01_1043,59.8959536747,DRL_task,1,105,
0,0,0,0,,,5.90649795532,17,39,1,323.09703517,5,,,,,,,2017_Aug_01_1043,59.8959536747,DRL_task,1,105,
0,0,0,0,,,6.08842015266,18,40,1,329.187101126,5,,,,,,,2017_Aug_01_1043,59.8959536747,DRL_task,1,105,
0,0,0,0,,,5.13990688324,19,41,1,334.325953007,5,,,,,,,2017_Aug_01_1043,59.8959536747,DRL_task,1,105,
0,0,0,0,,,5.05422496796,20,42,1,339.38123703,5,,,,,,,2017_Aug_01_1043,59.8959536747,DRL_task,1,105,
0,0,0,0,,,5.55683612823,21,43,1,344.937021017,5,,,,,,,2017_Aug_01_1043,59.8959536747,DRL_task,1,105,
0,0,0,0,,,3.70398402214,21,44,1,348.641222,5,,,,,,,2017_Aug_01_1043,59.8959536747,DRL_task,1,105,
0,0,0,0,,,7.69029784203,22,45,1,356.331983089,5,,,,,,,2017_Aug_01_1043,59.8959536747,DRL_task,1,105,
0,0,0,0,,,6.42340707779,23,46,1,362.755825043,5,,,,,,,2017_Aug_01_1043,59.8959536747,DRL_task,1,105,
0,0,0,0,,,4.83843207359,23,47,1,367.594235182,5,,,,,,,2017_Aug_01_1043,59.8959536747,DRL_task,1,105,
0,0,0,0,,,5.54070401192,24,48,1,373.133361101,5,,,,,,,2017_Aug_01_1043,59.8959536747,DRL_task,1,105,
0,0,0,0,,,6.00630092621,25,49,1,379.139737129,5,,,,,,,2017_Aug_01_1043,59.8959536747,DRL_task,1,105,
0,0,0,0,,,6.02314901352,26,50,1,385.162737131,5,,,,,,,2017_Aug_01_1043,59.8959536747,DRL_task,1,105,
0,0,0,0,,,5.8561630249,27,51,1,391.018905163,5,,,,,,,2017_Aug_01_1043,59.8959536747,DRL_task,1,105,
0,0,0,0,,,5.43895506859,28,52,1,396.457985163,5,,,,,,,2017_Aug_01_1043,59.8959536747,DRL_task,1,105,
0,0,0,0,,,4.68801188469,28,53,1,401.146509171,5,,,,,,,2017_Aug_01_1043,59.8959536747,DRL_task,1,105,
0,0,0,0,,,6.15510511398,29,54,1,407.302684069,5,,,,,,,2017_Aug_01_1043,59.8959536747,DRL_task,1,105,
0,0,0,0,,,6.8072578907,30,55,1,414.109841108,5,,,,,,,2017_Aug_01_1043,59.8959536747,DRL_task,1,105,
0,0,0,0,,,6.42306995392,31,56,1,420.533488035,5,,,,,,,2017_Aug_01_1043,59.8959536747,DRL_task,1,105,
0,0,0,0,,,7.54308915138,32,57,1,428.091228962,5,,,,,,,2017_Aug_01_1043,59.8959536747,DRL_task,1,105,
0,0,0,0,,,6.65647387505,33,58,1,434.731842995,5,,,,,,,2017_Aug_01_1043,59.8959536747,DRL_task,1,105,
0,0,0,0,,,7.07316708565,34,59,1,441.805670977,5,,,,,,,2017_Aug_01_1043,59.8959536747,DRL_task,1,105,
0,0,0,0,,,8.10838294029,35,60,1,449.914178133,5,,,,,,,2017_Aug_01_1043,59.8959536747,DRL_task,1,105,
0,0,0,0,,,6.12316894531,36,61,1,456.037527084,5,,,,,,,2017_Aug_01_1043,59.8959536747,DRL_task,1,105,
0,0,0,0,,,4.48887300491,36,62,1,460.542294025,5,,,,,,,2017_Aug_01_1043,59.8959536747,DRL_task,1,105,
0,0,0,0,,,4.18828606606,36,63,1,464.713154078,5,,,,,,,2017_Aug_01_1043,59.8959536747,DRL_task,1,105,
0,0,0,0,,,6.32300400734,37,64,1,471.036659002,5,,,,,,,2017_Aug_01_1043,59.8959536747,DRL_task,1,105,
0,0,0,0,,,8.15753793716,38,65,1,479.194899082,5,,,,,,,2017_Aug_01_1043,59.8959536747,DRL_task,1,105,
0,0,0,0,,,5.8227930069,39,66,1,485.017858982,5,,,,,,,2017_Aug_01_1043,59.8959536747,DRL_task,1,105,
0,0,0,0,,,5.97311902046,40,67,1,490.99079895,5,,,,,,,2017_Aug_01_1043,59.8959536747,DRL_task,1,105,
0,0,0,0,,,4.9560649395,40,68,1,495.946172953,5,,,,,,,2017_Aug_01_1043,59.8959536747,DRL_task,1,105,
0,0,0,0,,,6.48927211761,41,69,1,502.452875137,5,,,,,,,2017_Aug_01_1043,59.8959536747,DRL_task,1,105,
0,0,0,0,,,7.35867190361,42,70,1,509.794139147,5,,,,,,,2017_Aug_01_1043,59.8959536747,DRL_task,1,105,
0,0,0,0,,,5.0209569931,43,71,1,514.816084146,5,,,,,,,2017_Aug_01_1043,59.8959536747,DRL_task,1,105,
0,0,0,0,,,5.62394213676,44,72,1,520.438606024,5,,,,,,,2017_Aug_01_1043,59.8959536747,DRL_task,1,105,
0,0,0,0,,,5.53791689873,45,73,1,525.977410078,5,,,,,,,2017_Aug_01_1043,59.8959536747,DRL_task,1,105,
0,0,0,0,,,7.1421661377,46,74,1,533.118499994,5,,,,,,,2017_Aug_01_1043,59.8959536747,DRL_task,1,105,
0,0,0,0,,,15.9164469242,47,75,1,549.03549695,5,,,,,,,2017_Aug_01_1043,59.8959536747,DRL_task,1,105,
0,0,0,0,,,12.5132269859,48,76,1,561.548419952,5,,,,,,,2017_Aug_01_1043,59.8959536747,DRL_task,1,105,
0,0,0,0,,,7.10051298141,49,77,1,568.656077147,5,,,,,,,2017_Aug_01_1043,59.8959536747,DRL_task,1,105,
0,0,0,0,,,6.31375908852,50,78,1,574.96249795,5,,,,,,,2017_Aug_01_1043,59.8959536747,DRL_task,1,105,
0,0,0,0,,,3.25226092339,50,79,1,578.216165066,5,,,,,,,2017_Aug_01_1043,59.8959536747,DRL_task,1,105,
0,0,0,0,,,5.3721549511,51,80,1,583.588453054,5,,,,,,,2017_Aug_01_1043,59.8959536747,DRL_task,1,105,
0,0,0,0,,,7.65817809105,52,81,1,591.24637413,5,,,,,,,2017_Aug_01_1043,59.8959536747,DRL_task,1,105,
0,0,0,0,,,5.85594391823,53,82,1,597.102692127,5,,,,,,,2017_Aug_01_1043,59.8959536747,DRL_task,1,105,
0,0,0,0,,,4.28907108307,53,83,1,601.390352011,5,,,,,,,2017_Aug_01_1043,59.8959536747,DRL_task,1,105,
0,0,0,0,,,6.39015603065,54,84,1,607.797060013,5,,,,,,,2017_Aug_01_1043,59.8959536747,DRL_task,1,105,
0,0,0,0,,,6.0395128727,55,85,1,613.820285082,5,,,,,,,2017_Aug_01_1043,59.8959536747,DRL_task,1,105,
0,0,0,0,,,5.12235713005,56,86,1,618.942315102,5,,,,,,,2017_Aug_01_1043,59.8959536747,DRL_task,1,105,
0,0,0,0,,,5.55592393875,57,87,1,624.497980118,5,,,,,,,2017_Aug_01_1043,59.8959536747,DRL_task,1,105,
0,0,0,0,,,6.65684199333,58,88,1,631.154966116,5,,,,,,,2017_Aug_01_1043,59.8959536747,DRL_task,1,105,
0,0,0,0,,,4.92177796364,58,89,1,636.077001095,5,,,,,,,2017_Aug_01_1043,59.8959536747,DRL_task,1,105,
0,0,0,0,,,3.78752112389,58,90,1,639.864212036,5,,,,,,,2017_Aug_01_1043,59.8959536747,DRL_task,1,105,
0,0,0,0,,,7.5911128521,59,91,1,647.455688953,5,,,,,,,2017_Aug_01_1043,59.8959536747,DRL_task,1,105,
0,0,0,0,,,6.05657815933,60,92,1,653.51187706,5,,,,,,,2017_Aug_01_1043,59.8959536747,DRL_task,1,105,
0,0,0,0,,,6.43620681763,61,93,1,659.952000141,5,,,,,,,2017_Aug_01_1043,59.8959536747,DRL_task,1,105,
0,0,0,0,,,4.02353906631,61,94,1,663.972896099,5,,,,,,,2017_Aug_01_1043,59.8959536747,DRL_task,1,105,
0,0,0,0,,,5.82431292534,62,95,1,669.795650005,5,,,,,,,2017_Aug_01_1043,59.8959536747,DRL_task,1,105,
0,0,0,0,,,8.75765705109,63,96,1,678.555118084,5,,,,,,,2017_Aug_01_1043,59.8959536747,DRL_task,1,105,
0,0,0,0,,,6.80713701248,64,97,1,685.362257004,5,,,,,,,2017_Aug_01_1043,59.8959536747,DRL_task,1,105,
0,0,0,0,,,7.32553696632,65,98,1,692.686628103,5,,,,,,,2017_Aug_01_1043,59.8959536747,DRL_task,1,105,
0,0,0,0,,,,,,,,,"['space', 'space', 'space', 'space', 'space', 'space', 'space', 'space', 'space', 'space', 'space', 'space', 'space', 'space', 'space', 'space', 'space', 'space', 'space', 'space', 'space', 'space', 'space', 'space', 'space', 'space', 'space', 'space', 'space', 'space', 'space', 'space', 'space', 'space', 'space', 'space', 'space', 'space', 'space', 'space', 'space', 'space', 'space', 'space', 'space', 'space', 'space', 'space', 'space', 'space', 'space', 'space', 'space', 'space', 'space', 'space', 'space', 'space', 'space', 'space', 'space', 'space', 'space', 'space', 'space', 'space', 'space', 'space', 'space', 'space', 'space', 'space', 'space', 'space', 'space', 'space', 'space', 'space', 'space', 'space', 'space', 'space', 'space', 'space', 'space', 'space', 'space', 'space', 'space', 'space', 'space', 'space', 'space', 'space', 'space', 'space', 'space', 'space']","[8.857549905776978, 12.444700002670288, 15.064141988754272, 18.86669087409973, 19.935704946517944, 22.288100957870483, 27.460397958755493, 32.43208599090576, 36.16808199882507, 42.04194498062134, 51.417438983917236, 72.70772886276245, 97.86756896972656, 104.74163484573364, 107.49419379234314, 111.5809268951416, 117.15473079681396, 121.96010494232178, 127.79891800880432, 132.40411901474, 137.50822186470032, 142.2978479862213, 143.71597480773926, 148.03575992584229, 154.7611289024353, 160.48202300071716, 163.85491681098938, 168.0567798614502, 172.39457488059998, 177.33427381515503, 184.0236678123474, 185.5095009803772, 189.66453385353088, 197.27095484733582, 202.77779579162598, 207.66545486450195, 212.6552939414978, 218.22748684883118, 224.13398480415344, 230.22240495681763, 235.36231184005737, 240.41653680801392, 245.97337293624878, 249.67735695838928, 257.36765480041504, 263.79106187820435, 268.6294939517975, 274.1701979637146, 280.1764988899231, 286.1996479034424, 292.0558109283447, 297.494765996933, 302.1827778816223, 308.33788299560547, 315.14514088630676, 321.5682108402252, 329.11129999160767, 335.76777386665344, 342.840940952301, 350.9493238925934, 357.0724928379059, 361.5613658428192, 365.7496519088745, 372.072655916214, 380.2301938533783, 386.05298686027527, 392.0261058807373, 396.9821708202362, 403.47144293785095, 410.8301148414612, 415.8510718345642, 421.47501397132874, 427.01293087005615, 434.15509700775146, 450.07154393196106, 462.58477091789246, 469.68528389930725, 475.9990429878235, 479.2513039112091, 484.6234588623047, 492.2816369533539, 498.13758087158203, 502.4266519546509, 508.8168079853058, 514.8563208580017, 519.9786779880524, 525.5346019268036, 532.1914439201355, 537.1132218837738, 540.9007430076599, 548.4918558597565, 554.5484340190887, 560.9846408367157, 565.0081799030304, 570.8324928283691, 579.5901498794556, 586.3972868919373, 593.7228238582611]",space,7.64292812347,,,2017_Aug_01_1043,59.8959536747,DRL_task,1,105,
1,0,1,0,,,1.64041399956,65,1,2,709.521029949,5,,,,,,,2017_Aug_01_1043,59.8959536747,DRL_task,1,105,
1,0,1,0,,,5.4214758873,66,2,2,714.976657152,5,,,,,,,2017_Aug_01_1043,59.8959536747,DRL_task,1,105,
1,0,1,0,,,5.00648593903,67,3,2,719.948451996,5,,,,,,,2017_Aug_01_1043,59.8959536747,DRL_task,1,105,
1,0,1,0,,,5.3544280529,68,4,2,725.304067135,5,,,,,,,2017_Aug_01_1043,59.8959536747,DRL_task,1,105,
1,0,1,0,,,5.65586400032,69,5,2,730.960083961,5,,,,,,,2017_Aug_01_1043,59.8959536747,DRL_task,1,105,
1,0,1,0,,,6.10795307159,70,6,2,737.066491127,5,,,,,,,2017_Aug_01_1043,59.8959536747,DRL_task,1,105,
1,0,1,0,,,6.43997192383,71,7,2,743.506823063,5,,,,,,,2017_Aug_01_1043,59.8959536747,DRL_task,1,105,
1,0,1,0,,,6.32201290131,72,8,2,749.829913139,5,,,,,,,2017_Aug_01_1043,59.8959536747,DRL_task,1,105,
1,0,1,0,,,6.1241440773,73,9,2,755.953248978,5,,,,,,,2017_Aug_01_1043,59.8959536747,DRL_task,1,105,
1,0,1,0,,,7.99071002007,74,10,2,763.944805145,5,,,,,,,2017_Aug_01_1043,59.8959536747,DRL_task,1,105,
1,0,1,0,,,3.67186713219,74,11,2,767.615478992,5,,,,,,,2017_Aug_01_1043,59.8959536747,DRL_task,1,105,
1,0,1,0,,,5.73912787437,75,12,2,773.354874134,5,,,,,,,2017_Aug_01_1043,59.8959536747,DRL_task,1,105,
1,0,1,0,,,6.12337398529,76,13,2,779.477763176,5,,,,,,,2017_Aug_01_1043,59.8959536747,DRL_task,1,105,
1,0,1,0,,,3.78712511063,76,14,2,783.298648119,5,,,,,,,2017_Aug_01_1043,59.8959536747,DRL_task,1,105,
1,0,1,0,,,6.47235798836,77,15,2,789.738553047,5,,,,,,,2017_Aug_01_1043,59.8959536747,DRL_task,1,105,
1,0,1,0,,,7.27573084831,78,16,2,797.01289916,5,,,,,,,2017_Aug_01_1043,59.8959536747,DRL_task,1,105,
1,0,1,0,,,8.20849299431,79,17,2,805.221832037,5,,,,,,,2017_Aug_01_1043,59.8959536747,DRL_task,1,105,
1,0,1,0,,,3.45342707634,79,18,2,808.675208092,5,,,,,,,2017_Aug_01_1043,59.8959536747,DRL_task,1,105,
1,0,1,0,,,5.45465302467,80,19,2,814.130890131,5,,,,,,,2017_Aug_01_1043,59.8959536747,DRL_task,1,105,
1,0,1,0,,,7.64271998405,81,20,2,821.772490025,5,,,,,,,2017_Aug_01_1043,59.8959536747,DRL_task,1,105,
1,0,1,0,,,5.27211904526,82,21,2,827.044327021,5,,,,,,,2017_Aug_01_1043,59.8959536747,DRL_task,1,105,
1,0,1,0,,,3.95434689522,82,22,2,830.998686075,5,,,,,,,2017_Aug_01_1043,59.8959536747,DRL_task,1,105,
1,0,1,0,,,4.73831796646,82,23,2,835.737149,5,,,,,,,2017_Aug_01_1043,59.8959536747,DRL_task,1,105,
1,0,1,0,,,3.7201731205,82,24,2,839.457556009,5,,,,,,,2017_Aug_01_1043,59.8959536747,DRL_task,1,105,
1,0,1,0,,,4.26994895935,82,25,2,843.72895503,5,,,,,,,2017_Aug_01_1043,59.8959536747,DRL_task,1,105,
1,0,1,0,,,6.20674610138,83,26,2,849.935244083,5,,,,,,,2017_Aug_01_1043,59.8959536747,DRL_task,1,105,
1,0,1,0,,,8.95952296257,84,27,2,858.894744158,5,,,,,,,2017_Aug_01_1043,59.8959536747,DRL_task,1,105,
1,0,1,0,,,5.39022397995,85,28,2,864.283972979,5,,,,,,,2017_Aug_01_1043,59.8959536747,DRL_task,1,105,
1,0,1,0,,,4.97023296356,85,29,2,869.255862951,5,,,,,,,2017_Aug_01_1043,59.8959536747,DRL_task,1,105,
1,0,1,0,,,7.24117302895,86,30,2,876.496567011,5,,,,,,,2017_Aug_01_1043,59.8959536747,DRL_task,1,105,
1,0,1,0,,,6.74164009094,87,31,2,883.237169981,5,,,,,,,2017_Aug_01_1043,59.8959536747,DRL_task,1,105,
1,0,1,0,,,9.36014080048,88,32,2,892.596994162,5,,,,,,,2017_Aug_01_1043,59.8959536747,DRL_task,1,105,
1,0,1,0,,,6.2894551754,89,33,2,898.88697505,5,,,,,,,2017_Aug_01_1043,59.8959536747,DRL_task,1,105,
1,0,1,0,,,5.33933281898,90,34,2,904.225969076,5,,,,,,,2017_Aug_01_1043,59.8959536747,DRL_task,1,105,
1,0,1,0,,,4.98836708069,90,35,2,909.214295149,5,,,,,,,2017_Aug_01_1043,59.8959536747,DRL_task,1,105,
1,0,1,0,,,4.18795990944,90,36,2,913.402107,5,,,,,,,2017_Aug_01_1043,59.8959536747,DRL_task,1,105,
1,0,1,0,,,6.94067311287,91,37,2,920.343024969,5,,,,,,,2017_Aug_01_1043,59.8959536747,DRL_task,1,105,
1,0,1,0,,,6.18854403496,92,38,2,926.532619953,5,,,,,,,2017_Aug_01_1043,59.8959536747,DRL_task,1,105,
1,0,1,0,,,1.00215697289,92,39,2,927.533612013,5,,,,,,,2017_Aug_01_1043,59.8959536747,DRL_task,1,105,
1,0,1,0,,,0.215635061264,92,40,2,927.750740051,5,,,,,,,2017_Aug_01_1043,59.8959536747,DRL_task,1,105,
1,0,1,0,,,6.62361383438,93,41,2,934.37433815,5,,,,,,,2017_Aug_01_1043,59.8959536747,DRL_task,1,105,
1,0,1,0,,,7.80951714516,94,42,2,942.182549953,5,,,,,,,2017_Aug_01_1043,59.8959536747,DRL_task,1,105,
1,0,1,0,,,4.32139801979,94,43,2,946.50366497,5,,,,,,,2017_Aug_01_1043,59.8959536747,DRL_task,1,105,
1,0,1,0,,,5.08869099617,95,44,2,951.592458963,5,,,,,,,2017_Aug_01_1043,59.8959536747,DRL_task,1,105,
1,0,1,0,,,8.12538981438,96,45,2,959.717473984,5,,,,,,,2017_Aug_01_1043,59.8959536747,DRL_task,1,105,
1,0,1,0,,,6.08938622475,97,46,2,965.807429075,5,,,,,,,2017_Aug_01_1043,59.8959536747,DRL_task,1,105,
1,0,1,0,,,6.02303695679,98,47,2,971.830304146,5,,,,,,,2017_Aug_01_1043,59.8959536747,DRL_task,1,105,
1,0,1,0,,,6.07300782204,99,48,2,977.903295994,5,,,,,,,2017_Aug_01_1043,59.8959536747,DRL_task,1,105,
1,0,1,0,,,6.03842306137,100,49,2,983.943035126,5,,,,,,,2017_Aug_01_1043,59.8959536747,DRL_task,1,105,
1,0,1,0,,,5.99102115631,101,50,2,989.932603121,5,,,,,,,2017_Aug_01_1043,59.8959536747,DRL_task,1,105,
1,0,1,0,,,5.68941092491,102,51,2,995.621983051,5,,,,,,,2017_Aug_01_1043,59.8959536747,DRL_task,1,105,
1,0,1,0,,,7.23971891403,103,52,2,1002.86293101,5,,,,,,,2017_Aug_01_1043,59.8959536747,DRL_task,1,105,
1,0,1,0,,,5.30538606644,104,53,2,1008.16852117,5,,,,,,,2017_Aug_01_1043,59.8959536747,DRL_task,1,105,
1,0,1,0,,,5.47241997719,105,54,2,1013.64102912,5,,,,,,,2017_Aug_01_1043,59.8959536747,DRL_task,1,105,
1,0,1,0,,,6.70851492882,106,55,2,1020.34807611,5,,,,,,,2017_Aug_01_1043,59.8959536747,DRL_task,1,105,
1,0,1,0,,,4.67158317566,106,56,2,1025.01958203,5,,,,,,,2017_Aug_01_1043,59.8959536747,DRL_task,1,105,
1,0,1,0,,,5.27244997025,107,57,2,1030.29186797,5,,,,,,,2017_Aug_01_1043,59.8959536747,DRL_task,1,105,
1,0,1,0,,,6.82320284843,108,58,2,1037.11581206,5,,,,,,,2017_Aug_01_1043,59.8959536747,DRL_task,1,105,
1,0,1,0,,,4.82193207741,108,59,2,1041.93761015,5,,,,,,,2017_Aug_01_1043,59.8959536747,DRL_task,1,105,
1,0,1,0,,,6.94053292274,109,60,2,1048.87828398,5,,,,,,,2017_Aug_01_1043,59.8959536747,DRL_task,1,105,
1,0,1,0,,,6.99113106728,110,61,2,1055.86874318,5,,,,,,,2017_Aug_01_1043,59.8959536747,DRL_task,1,105,
1,0,1,0,,,5.02165794373,111,62,2,1060.89086103,5,,,,,,,2017_Aug_01_1043,59.8959536747,DRL_task,1,105,
1,0,1,0,,,5.92144298553,112,63,2,1066.81377006,5,,,,,,,2017_Aug_01_1043,59.8959536747,DRL_task,1,105,
1,0,1,0,,,3.85558009148,112,64,2,1070.66776514,5,,,,,,,2017_Aug_01_1043,59.8959536747,DRL_task,1,105,
1,0,1,0,,,4.77217102051,112,65,2,1075.43933296,5,,,,,,,2017_Aug_01_1043,59.8959536747,DRL_task,1,105,
1,0,1,0,,,6.23934388161,113,66,2,1081.67922401,5,,,,,,,2017_Aug_01_1043,59.8959536747,DRL_task,1,105,
1,0,1,0,,,6.95590209961,114,67,2,1088.63679004,5,,,,,,,2017_Aug_01_1043,59.8959536747,DRL_task,1,105,
1,0,1,0,,,5.15712499619,115,68,2,1093.79200196,5,,,,,,,2017_Aug_01_1043,59.8959536747,DRL_task,1,105,
1,0,1,0,,,4.10397005081,115,69,2,1097.89617014,5,,,,,,,2017_Aug_01_1043,59.8959536747,DRL_task,1,105,
1,0,1,0,,,5.75599384308,116,70,2,1103.6526041,5,,,,,,,2017_Aug_01_1043,59.8959536747,DRL_task,1,105,
1,0,1,0,,,4.01986312866,116,71,2,1107.67351818,5,,,,,,,2017_Aug_01_1043,59.8959536747,DRL_task,1,105,
1,0,1,0,,,2.98770403862,116,72,2,1110.65986705,5,,,,,,,2017_Aug_01_1043,59.8959536747,DRL_task,1,105,
1,0,1,0,,,5.00396990776,117,73,2,1115.66524696,5,,,,,,,2017_Aug_01_1043,59.8959536747,DRL_task,1,105,
1,0,1,0,,,5.95624494553,118,74,2,1121.62129903,5,,,,,,,2017_Aug_01_1043,59.8959536747,DRL_task,1,105,
1,0,1,0,,,4.08929300308,118,75,2,1125.70917106,5,,,,,,,2017_Aug_01_1043,59.8959536747,DRL_task,1,105,
1,0,1,0,,,2.06706213951,118,76,2,1127.77799511,5,,,,,,,2017_Aug_01_1043,59.8959536747,DRL_task,1,105,
1,0,1,0,,,2.13576292992,118,77,2,1129.91333199,5,,,,,,,2017_Aug_01_1043,59.8959536747,DRL_task,1,105,
1,0,1,0,,,4.25447702408,118,78,2,1134.16791201,5,,,,,,,2017_Aug_01_1043,59.8959536747,DRL_task,1,105,
1,0,1,0,,,11.9959969521,119,79,2,1146.16384411,5,,,,,,,2017_Aug_01_1043,59.8959536747,DRL_task,1,105,
1,0,1,0,,,7.47436904907,120,80,2,1153.63855505,5,,,,,,,2017_Aug_01_1043,59.8959536747,DRL_task,1,105,
1,0,1,0,,,0.817821979523,120,81,2,1154.45587015,5,,,,,,,2017_Aug_01_1043,59.8959536747,DRL_task,1,105,
1,0,1,0,,,3.42160201073,120,82,2,1157.87620616,5,,,,,,,2017_Aug_01_1043,59.8959536747,DRL_task,1,105,
1,0,1,0,,,7.40773701668,121,83,2,1165.28351498,5,,,,,,,2017_Aug_01_1043,59.8959536747,DRL_task,1,105,
1,0,1,0,,,12.5951590538,122,84,2,1177.88066697,5,,,,,,,2017_Aug_01_1043,59.8959536747,DRL_task,1,105,
1,0,1,0,,,8.59238791466,123,85,2,1186.47296214,5,,,,,,,2017_Aug_01_1043,59.8959536747,DRL_task,1,105,
1,0,1,0,,,9.64440011978,124,86,2,1196.11660218,5,,,,,,,2017_Aug_01_1043,59.8959536747,DRL_task,1,105,
1,0,1,0,,,5.75661993027,125,87,2,1201.87264705,5,,,,,,,2017_Aug_01_1043,59.8959536747,DRL_task,1,105,
1,0,1,0,,,7.45767092705,126,88,2,1209.34698796,5,,,,,,,2017_Aug_01_1043,59.8959536747,DRL_task,1,105,
1,0,1,0,,,4.97207403183,126,89,2,1214.3023181,5,,,,,,,2017_Aug_01_1043,59.8959536747,DRL_task,1,105,
1,0,1,0,,,6.27325701714,127,90,2,1220.57570195,5,,,,,,,2017_Aug_01_1043,59.8959536747,DRL_task,1,105,
1,0,1,0,,,7.35791492462,128,91,2,1227.933249,5,,,,,,,2017_Aug_01_1043,59.8959536747,DRL_task,1,105,
1,0,1,0,,,8.22343301773,129,92,2,1236.15886712,5,,,,,,,2017_Aug_01_1043,59.8959536747,DRL_task,1,105,
1,0,1,0,,,4.53837609291,129,93,2,1240.69670296,5,,,,,,,2017_Aug_01_1043,59.8959536747,DRL_task,1,105,
1,0,1,0,,,6.30645704269,130,94,2,1247.00303316,5,,,,,,,2017_Aug_01_1043,59.8959536747,DRL_task,1,105,
1,0,1,0,,,6.67397594452,131,95,2,1253.67695117,5,,,,,,,2017_Aug_01_1043,59.8959536747,DRL_task,1,105,
1,0,1,0,,,6.65831589699,132,96,2,1260.33415818,5,,,,,,,2017_Aug_01_1043,59.8959536747,DRL_task,1,105,
1,0,1,0,,,4.40325713158,132,97,2,1264.73880506,5,,,,,,,2017_Aug_01_1043,59.8959536747,DRL_task,1,105,
1,0,1,0,,,4.53804898262,132,98,2,1269.27632499,5,,,,,,,2017_Aug_01_1043,59.8959536747,DRL_task,1,105,
1,0,1,0,,,6.32439804077,133,99,2,1275.60020113,5,,,,,,,2017_Aug_01_1043,59.8959536747,DRL_task,1,105,
1,0,1,0,,,6.94142699242,134,100,2,1282.54068398,5,,,,,,,2017_Aug_01_1043,59.8959536747,DRL_task,1,105,
1,0,1,0,,,8.17343783379,135,101,2,1290.71602201,5,,,,,,,2017_Aug_01_1043,59.8959536747,DRL_task,1,105,
1,0,1,0,,,7.62600016594,136,102,2,1298.34067416,5,,,,,,,2017_Aug_01_1043,59.8959536747,DRL_task,1,105,
1,0,1,0,,,6.18869900703,137,103,2,1304.53063011,5,,,,,,,2017_Aug_01_1043,59.8959536747,DRL_task,1,105,
1,0,1,0,,,,,,,,,"['space', 'space', 'space', 'space', 'space', 'space', 'space', 'space', 'space', 'space', 'space', 'space', 'space', 'space', 'space', 'space', 'space', 'space', 'space', 'space', 'space', 'space', 'space', 'space', 'space', 'space', 'space', 'space', 'space', 'space', 'space', 'space', 'space', 'space', 'space', 'space', 'space', 'space', 'space', 'space', 'space', 'space', 'space', 'space', 'space', 'space', 'space', 'space', 'space', 'space', 'space', 'space', 'space', 'space', 'space', 'space', 'space', 'space', 'space', 'space', 'space', 'space', 'space', 'space', 'space', 'space', 'space', 'space', 'space', 'space', 'space', 'space', 'space', 'space', 'space', 'space', 'space', 'space', 'space', 'space', 'space', 'space', 'space', 'space', 'space', 'space', 'space', 'space', 'space', 'space', 'space', 'space', 'space', 'space', 'space', 'space', 'space', 'space', 'space', 'space', 'space', 'space', 'space']","[1.6404139995574951, 7.061889886856079, 12.068375825881958, 17.42280387878418, 23.078667879104614, 29.186620950698853, 35.62659287452698, 41.94860577583313, 48.072749853134155, 56.06345987319946, 59.73532700538635, 65.47445487976074, 71.59782886505127, 75.38495397567749, 81.85731196403503, 89.13304281234741, 97.34153580665588, 100.7949628829956, 106.24961590766907, 113.89233589172363, 119.1644549369812, 123.1188018321991, 127.85711979866028, 131.57729291915894, 135.84724187850952, 142.05398797988892, 151.0135109424591, 156.40373492240906, 161.37396788597107, 168.615140914917, 175.35678100585938, 184.71692180633545, 191.00637698173523, 196.34570980072021, 201.3340768814087, 205.52203679084778, 212.46270990371704, 218.65125393867493, 219.65341091156006, 219.8690459728241, 226.4926598072052, 234.30217695236206, 238.6235749721527, 243.71226596832275, 251.83765578269958, 257.9270420074463, 263.9500789642334, 270.02308678627014, 276.061509847641, 282.052531003952, 287.7419419288635, 294.9816608428955, 300.2870469093323, 305.7594668865204, 312.46798181533813, 317.1395649909973, 322.4120149612427, 329.2352178096771, 334.05714988708496, 340.9976828098297, 347.9888138771057, 353.0104718208313, 358.93191480636597, 362.7874948978424, 367.5596659183502, 373.7990097999573, 380.75491189956665, 385.91203689575195, 390.0160069465637, 395.77200078964233, 399.79186391830444, 402.77956795692444, 407.78353786468506, 413.7397828102112, 417.82907581329346, 419.89613795280457, 422.03190088272095, 426.2863779067993, 438.2823748588562, 445.75674390792847, 446.5745658874512, 449.9961678981781, 457.40390491485596, 469.99906396865845, 478.59145188331604, 488.23585200309753, 493.99247193336487, 501.4501428604126, 506.42221689224243, 512.695473909378, 520.0533888339996, 528.2768218517303, 532.8151979446411, 539.1216549873352, 545.7956309318542, 552.4539468288422, 556.8572039604187, 561.3952529430389, 567.7196509838104, 574.6610779762268, 582.8345158100128, 590.4605159759521, 596.6492149829865]",space,10.3116750717,,,2017_Aug_01_1043,59.8959536747,DRL_task,1,105,
2,0,2,0,,,6.0487408638,138,1,3,1325.41933799,5,,,,,,,2017_Aug_01_1043,59.8959536747,DRL_task,1,105,
2,0,2,0,,,5.02356100082,139,2,3,1330.44129109,5,,,,,,,2017_Aug_01_1043,59.8959536747,DRL_task,1,105,
2,0,2,0,,,4.45429110527,139,3,3,1334.89598918,5,,,,,,,2017_Aug_01_1043,59.8959536747,DRL_task,1,105,
2,0,2,0,,,4.3714799881,139,4,3,1339.26723003,5,,,,,,,2017_Aug_01_1043,59.8959536747,DRL_task,1,105,
2,0,2,0,,,4.95396304131,139,5,3,1344.22245002,5,,,,,,,2017_Aug_01_1043,59.8959536747,DRL_task,1,105,
2,0,2,0,,,5.47243285179,140,6,3,1349.69478703,5,,,,,,,2017_Aug_01_1043,59.8959536747,DRL_task,1,105,
2,0,2,0,,,7.24084210396,141,7,3,1356.93597507,5,,,,,,,2017_Aug_01_1043,59.8959536747,DRL_task,1,105,
2,0,2,0,,,6.1410639286,142,8,3,1363.07550907,5,,,,,,,2017_Aug_01_1043,59.8959536747,DRL_task,1,105,
2,0,2,0,,,3.30213809013,142,9,3,1366.37914705,5,,,,,,,2017_Aug_01_1043,59.8959536747,DRL_task,1,105,
2,0,2,0,,,4.22234797478,142,10,3,1370.60025907,5,,,,,,,2017_Aug_01_1043,59.8959536747,DRL_task,1,105,
2,0,2,0,,,7.4732940197,143,11,3,1378.07483816,5,,,,,,,2017_Aug_01_1043,59.8959536747,DRL_task,1,105,
2,0,2,0,,,5.22373890877,144,12,3,1383.29674697,5,,,,,,,2017_Aug_01_1043,59.8959536747,DRL_task,1,105,
2,0,2,0,,,4.0359890461,144,13,3,1387.33455801,5,,,,,,,2017_Aug_01_1043,59.8959536747,DRL_task,1,105,
2,0,2,0,,,7.02574396133,145,14,3,1394.35864711,5,,,,,,,2017_Aug_01_1043,59.8959536747,DRL_task,1,105,
2,0,2,0,,,7.02420210838,146,15,3,1401.38257217,5,,,,,,,2017_Aug_01_1043,59.8959536747,DRL_task,1,105,
2,0,2,0,,,8.92599797249,147,16,3,1410.30850315,5,,,,,,,2017_Aug_01_1043,59.8959536747,DRL_task,1,105,
2,0,2,0,,,6.40623688698,148,17,3,1416.7154901,5,,,,,,,2017_Aug_01_1043,59.8959536747,DRL_task,1,105,
2,0,2,0,,,7.74045109749,149,18,3,1424.45679402,5,,,,,,,2017_Aug_01_1043,59.8959536747,DRL_task,1,105,
2,0,2,0,,,6.28992605209,150,19,3,1430.74674702,5,,,,,,,2017_Aug_01_1043,59.8959536747,DRL_task,1,105,
2,0,2,0,,,6.42492985725,151,20,3,1437.17035007,5,,,,,,,2017_Aug_01_1043,59.8959536747,DRL_task,1,105,
2,0,2,0,,,5.40526914597,152,21,3,1442.57610917,5,,,,,,,2017_Aug_01_1043,59.8959536747,DRL_task,1,105,
2,0,2,0,,,6.83943796158,153,22,3,1449.41637802,5,,,,,,,2017_Aug_01_1043,59.8959536747,DRL_task,1,105,
2,0,2,0,,,3.78838801384,153,23,3,1453.20393395,5,,,,,,,2017_Aug_01_1043,59.8959536747,DRL_task,1,105,
2,0,2,0,,,4.28781986237,153,24,3,1457.49170995,5,,,,,,,2017_Aug_01_1043,59.8959536747,DRL_task,1,105,
2,0,2,0,,,5.3545999527,154,25,3,1462.8471241,5,,,,,,,2017_Aug_01_1043,59.8959536747,DRL_task,1,105,
2,0,2,0,,,6.77385401726,155,26,3,1469.62117815,5,,,,,,,2017_Aug_01_1043,59.8959536747,DRL_task,1,105,
2,0,2,0,,,4.87125301361,155,27,3,1474.49296403,5,,,,,,,2017_Aug_01_1043,59.8959536747,DRL_task,1,105,
2,0,2,0,,,3.28880000114,155,28,3,1477.77952695,5,,,,,,,2017_Aug_01_1043,59.8959536747,DRL_task,1,105,
2,0,2,0,,,4.60477018356,155,29,3,1482.38458204,5,,,,,,,2017_Aug_01_1043,59.8959536747,DRL_task,1,105,
2,0,2,0,,,11.5621089935,156,30,3,1493.94677305,5,,,,,,,2017_Aug_01_1043,59.8959536747,DRL_task,1,105,
2,0,2,0,,,6.00469684601,157,31,3,1499.95314002,5,,,,,,,2017_Aug_01_1043,59.8959536747,DRL_task,1,105,
2,0,2,0,,,7.25918698311,158,32,3,1507.21069217,5,,,,,,,2017_Aug_01_1043,59.8959536747,DRL_task,1,105,
2,0,2,0,,,6.9391310215,159,33,3,1514.18474507,5,,,,,,,2017_Aug_01_1043,59.8959536747,DRL_task,1,105,
2,0,2,0,,,6.19021105766,160,34,3,1520.34107208,5,,,,,,,2017_Aug_01_1043,59.8959536747,DRL_task,1,105,
2,0,2,0,,,8.65878391266,161,35,3,1529.00074196,5,,,,,,,2017_Aug_01_1043,59.8959536747,DRL_task,1,105,
2,0,2,0,,,5.35585713387,162,36,3,1534.35579205,5,,,,,,,2017_Aug_01_1043,59.8959536747,DRL_task,1,105,
2,0,2,0,,,5.53897094727,163,37,3,1539.89518714,5,,,,,,,2017_Aug_01_1043,59.8959536747,DRL_task,1,105,
2,0,2,0,,,5.87444591522,164,38,3,1545.76776099,5,,,,,,,2017_Aug_01_1043,59.8959536747,DRL_task,1,105,
2,0,2,0,,,4.98814511299,164,39,3,1550.75649309,5,,,,,,,2017_Aug_01_1043,59.8959536747,DRL_task,1,105,
2,0,2,0,,,4.75543689728,164,40,3,1555.52807403,5,,,,,,,2017_Aug_01_1043,59.8959536747,DRL_task,1,105,
2,0,2,0,,,7.2571849823,165,41,3,1562.76921511,5,,,,,,,2017_Aug_01_1043,59.8959536747,DRL_task,1,105,
2,0,2,0,,,10.5612001419,166,42,3,1573.33026004,5,,,,,,,2017_Aug_01_1043,59.8959536747,DRL_task,1,105,
2,0,2,0,,,5.90495204926,167,43,3,1579.23654699,5,,,,,,,2017_Aug_01_1043,59.8959536747,DRL_task,1,105,
2,0,2,0,,,8.97632098198,168,44,3,1588.21263313,5,,,,,,,2017_Aug_01_1043,59.8959536747,DRL_task,1,105,
2,0,2,0,,,7.94149398804,169,45,3,1596.18777013,5,,,,,,,2017_Aug_01_1043,59.8959536747,DRL_task,1,105,
2,0,2,0,,,3.93766283989,169,46,3,1600.09164596,5,,,,,,,2017_Aug_01_1043,59.8959536747,DRL_task,1,105,
2,0,2,0,,,7.9081389904,170,47,3,1607.99970913,5,,,,,,,2017_Aug_01_1043,59.8959536747,DRL_task,1,105,
2,0,2,0,,,4.95703005791,170,48,3,1612.95518398,5,,,,,,,2017_Aug_01_1043,59.8959536747,DRL_task,1,105,
2,0,2,0,,,6.75525808334,171,49,3,1619.71241713,5,,,,,,,2017_Aug_01_1043,59.8959536747,DRL_task,1,105,
2,0,2,0,,,7.5095179081,172,50,3,1627.22038007,5,,,,,,,2017_Aug_01_1043,59.8959536747,DRL_task,1,105,
2,0,2,0,,,6.47315597534,173,51,3,1633.69382715,5,,,,,,,2017_Aug_01_1043,59.8959536747,DRL_task,1,105,
2,0,2,0,,,6.85618400574,174,52,3,1640.55107403,5,,,,,,,2017_Aug_01_1043,59.8959536747,DRL_task,1,105,
2,0,2,0,,,5.83964109421,175,53,3,1646.39035916,5,,,,,,,2017_Aug_01_1043,59.8959536747,DRL_task,1,105,
2,0,2,0,,,6.79194998741,176,54,3,1653.18087697,5,,,,,,,2017_Aug_01_1043,59.8959536747,DRL_task,1,105,
2,0,2,0,,,8.32374191284,177,55,3,1661.50642896,5,,,,,,,2017_Aug_01_1043,59.8959536747,DRL_task,1,105,
2,0,2,0,,,5.67361617088,178,56,3,1667.17902112,5,,,,,,,2017_Aug_01_1043,59.8959536747,DRL_task,1,105,
2,0,2,0,,,3.62093281746,178,57,3,1670.79956698,5,,,,,,,2017_Aug_01_1043,59.8959536747,DRL_task,1,105,
2,0,2,0,,,6.77342510223,179,58,3,1677.57305002,5,,,,,,,2017_Aug_01_1043,59.8959536747,DRL_task,1,105,
2,0,2,0,,,9.37673187256,180,59,3,1686.94969296,5,,,,,,,2017_Aug_01_1043,59.8959536747,DRL_task,1,105,
2,0,2,0,,,5.42240810394,181,60,3,1692.40553808,5,,,,,,,2017_Aug_01_1043,59.8959536747,DRL_task,1,105,
2,0,2,0,,,16.2558441162,182,61,3,1708.63924003,5,,,,,,,2017_Aug_01_1043,59.8959536747,DRL_task,1,105,
2,0,2,0,,,14.1246919632,183,62,3,1722.754215,5,,,,,,,2017_Aug_01_1043,59.8959536747,DRL_task,1,105,
2,0,2,0,,,6.94218301773,184,63,3,1729.69489598,5,,,,,,,2017_Aug_01_1043,59.8959536747,DRL_task,1,105,
2,0,2,0,,,10.026870966,185,64,3,1739.72205615,5,,,,,,,2017_Aug_01_1043,59.8959536747,DRL_task,1,105,
2,0,2,0,,,5.58972287178,186,65,3,1745.31112218,5,,,,,,,2017_Aug_01_1043,59.8959536747,DRL_task,1,105,
2,0,2,0,,,8.47548317909,187,66,3,1753.78676915,5,,,,,,,2017_Aug_01_1043,59.8959536747,DRL_task,1,105,
2,0,2,0,,,7.97510099411,188,67,3,1761.76192904,5,,,,,,,2017_Aug_01_1043,59.8959536747,DRL_task,1,105,
2,0,2,0,,,8.49088382721,189,68,3,1770.25410104,5,,,,,,,2017_Aug_01_1043,59.8959536747,DRL_task,1,105,
2,0,2,0,,,3.05290317535,189,69,3,1773.30747008,5,,,,,,,2017_Aug_01_1043,59.8959536747,DRL_task,1,105,
2,0,2,0,,,4.75498390198,189,70,3,1778.06237102,5,,,,,,,2017_Aug_01_1043,59.8959536747,DRL_task,1,105,
2,0,2,0,,,7.77652287483,190,71,3,1785.83729601,5,,,,,,,2017_Aug_01_1043,59.8959536747,DRL_task,1,105,
2,0,2,0,,,6.62323904037,191,72,3,1792.46090913,5,,,,,,,2017_Aug_01_1043,59.8959536747,DRL_task,1,105,
2,0,2,0,,,5.82302808762,192,73,3,1798.28370214,5,,,,,,,2017_Aug_01_1043,59.8959536747,DRL_task,1,105,
2,0,2,0,,,5.43884205818,193,74,3,1803.72276807,5,,,,,,,2017_Aug_01_1043,59.8959536747,DRL_task,1,105,
2,0,2,0,,,7.30665397644,194,75,3,1811.03026414,5,,,,,,,2017_Aug_01_1043,59.8959536747,DRL_task,1,105,
2,0,2,0,,,9.35980892181,195,76,3,1820.39027405,5,,,,,,,2017_Aug_01_1043,59.8959536747,DRL_task,1,105,
2,0,2,0,,,6.70859098434,196,77,3,1827.09718704,5,,,,,,,2017_Aug_01_1043,59.8959536747,DRL_task,1,105,
2,0,2,0,,,9.99233293533,197,78,3,1837.09118199,5,,,,,,,2017_Aug_01_1043,59.8959536747,DRL_task,1,105,
2,0,2,0,,,5.17355513573,198,79,3,1842.26336217,5,,,,,,,2017_Aug_01_1043,59.8959536747,DRL_task,1,105,
2,0,2,0,,,3.76902794838,198,80,3,1846.03396916,5,,,,,,,2017_Aug_01_1043,59.8959536747,DRL_task,1,105,
2,0,2,0,,,3.70384097099,198,81,3,1849.73786616,5,,,,,,,2017_Aug_01_1043,59.8959536747,DRL_task,1,105,
2,0,2,0,,,5.556235075,199,82,3,1855.29353309,5,,,,,,,2017_Aug_01_1043,59.8959536747,DRL_task,1,105,
2,0,2,0,,,8.99247908592,200,83,3,1864.31988716,5,,,,,,,2017_Aug_01_1043,59.8959536747,DRL_task,1,105,
2,0,2,0,,,9.91201996803,201,84,3,1874.19694304,5,,,,,,,2017_Aug_01_1043,59.8959536747,DRL_task,1,105,
2,0,2,0,,,5.33860898018,202,85,3,1879.53588295,5,,,,,,,2017_Aug_01_1043,59.8959536747,DRL_task,1,105,
2,0,2,0,,,6.72290086746,203,86,3,1886.25950217,5,,,,,,,2017_Aug_01_1043,59.8959536747,DRL_task,1,105,
2,0,2,0,,,11.4797401428,204,87,3,1897.73821497,5,,,,,,,2017_Aug_01_1043,59.8959536747,DRL_task,1,105,
2,0,2,0,,,5.95607805252,205,88,3,1903.69458199,5,,,,,,,2017_Aug_01_1043,59.8959536747,DRL_task,1,105,
2,0,2,0,,,4.8206679821,205,89,3,1908.51638603,5,,,,,,,2017_Aug_01_1043,59.8959536747,DRL_task,1,105,
2,0,2,0,,,6.2897799015,206,90,3,1914.80639601,5,,,,,,,2017_Aug_01_1043,59.8959536747,DRL_task,1,105,
2,0,2,0,,,,,,,,,"['space', 'space', 'space', 'space', 'space', 'space', 'space', 'space', 'space', 'space', 'space', 'space', 'space', 'space', 'space', 'space', 'space', 'space', 'space', 'space', 'space', 'space', 'space', 'space', 'space', 'space', 'space', 'space', 'space', 'space', 'space', 'space', 'space', 'space', 'space', 'space', 'space', 'space', 'space', 'space', 'space', 'space', 'space', 'space', 'space', 'space', 'space', 'space', 'space', 'space', 'space', 'space', 'space', 'space', 'space', 'space', 'space', 'space', 'space', 'space', 'space', 'space', 'space', 'space', 'space', 'space', 'space', 'space', 'space', 'space', 'space', 'space', 'space', 'space', 'space', 'space', 'space', 'space', 'space', 'space', 'space', 'space', 'space', 'space', 'space', 'space', 'space', 'space', 'space', 'space']","[6.048740863800049, 11.072301864624023, 15.52659296989441, 19.898072957992554, 24.852035999298096, 30.324468851089478, 37.56531095504761, 43.70637488365173, 47.0085129737854, 51.23086094856262, 58.70415496826172, 63.92789387702942, 67.96388292312622, 74.98962688446045, 82.01382899284363, 90.93982696533203, 97.34606385231018, 105.08651494979858, 111.37644100189209, 117.80137085914612, 123.2066400051117, 130.04607796669006, 133.83446598052979, 138.1222858428955, 143.47688579559326, 150.25073981285095, 155.1219928264618, 158.4107928276062, 163.01556301116943, 174.5776720046997, 180.582368850708, 187.84155583381653, 194.78068685531616, 200.97089791297913, 209.62968182563782, 214.98553895950317, 220.5245099067688, 226.39895582199097, 231.3871009349823, 236.14253783226013, 243.39972281455994, 253.96092295646667, 259.86587500572205, 268.8421959877014, 276.7836899757385, 280.72135281562805, 288.6294918060303, 293.5865218639374, 300.3417799472809, 307.8512978553772, 314.324453830719, 321.1806378364563, 327.02027893066406, 333.81222891807556, 342.13597083091736, 347.80958700180054, 351.43051981925964, 358.20394492149353, 367.5806767940521, 373.003084897995, 389.25892901420593, 403.38362097740173, 410.32580399513245, 420.3526749610901, 425.9423978328705, 434.4178810119629, 442.392982006073, 450.88386583328247, 453.9367690086365, 458.691752910614, 466.46827578544617, 473.0915148258209, 478.9145429134369, 484.35338497161865, 491.6600389480591, 501.01984786987305, 507.72843885421753, 517.7207717895508, 522.8943269252777, 526.6633548736572, 530.3671958446503, 535.9234309196472, 544.9159100055695, 554.8279299736023, 560.1665389537811, 566.8894398212433, 578.3691799640656, 584.3252580165863, 589.1459259986877, 595.4357059001923]",space,9.72892308235,,,2017_Aug_01_1043,59.8959536747,DRL_task,1,105,
3,0,3,0,,,5.16197013855,207,1,4,1935.44469118,5,,,,,,,2017_Aug_01_1043,59.8959536747,DRL_task,1,105,
3,0,3,0,,,3.80401802063,207,2,4,1939.24864912,5,,,,,,,2017_Aug_01_1043,59.8959536747,DRL_task,1,105,
3,0,3,0,,,5.17331194878,208,3,4,1944.42092299,5,,,,,,,2017_Aug_01_1043,59.8959536747,DRL_task,1,105,
3,0,3,0,,,5.27102899551,209,4,4,1949.69310498,5,,,,,,,2017_Aug_01_1043,59.8959536747,DRL_task,1,105,
3,0,3,0,,,4.68846392632,209,5,4,1954.38113713,5,,,,,,,2017_Aug_01_1043,59.8959536747,DRL_task,1,105,
3,0,3,0,,,6.22314119339,210,6,4,1960.60452414,5,,,,,,,2017_Aug_01_1043,59.8959536747,DRL_task,1,105,
3,0,3,0,,,6.00655984879,211,7,4,1966.6107111,5,,,,,,,2017_Aug_01_1043,59.8959536747,DRL_task,1,105,
3,0,3,0,,,5.7402279377,212,8,4,1972.35011005,5,,,,,,,2017_Aug_01_1043,59.8959536747,DRL_task,1,105,
3,0,3,0,,,7.32270216942,213,9,4,1979.67459202,5,,,,,,,2017_Aug_01_1043,59.8959536747,DRL_task,1,105,
3,0,3,0,,,6.62441301346,214,10,4,1986.29809499,5,,,,,,,2017_Aug_01_1043,59.8959536747,DRL_task,1,105,
3,0,3,0,,,7.99141192436,215,11,4,1994.28996801,5,,,,,,,2017_Aug_01_1043,59.8959536747,DRL_task,1,105,
3,0,3,0,,,6.50818991661,216,12,4,2000.79684401,5,,,,,,,2017_Aug_01_1043,59.8959536747,DRL_task,1,105,
3,0,3,0,,,5.55627703667,217,13,4,2006.35244107,5,,,,,,,2017_Aug_01_1043,59.8959536747,DRL_task,1,105,
3,0,3,0,,,11.0944471359,218,14,4,2017.447685,5,,,,,,,2017_Aug_01_1043,59.8959536747,DRL_task,1,105,
3,0,3,0,,,5.50456595421,219,15,4,2022.95349002,5,,,,,,,2017_Aug_01_1043,59.8959536747,DRL_task,1,105,
3,0,3,0,,,12.3309679031,220,16,4,2035.28306818,5,,,,,,,2017_Aug_01_1043,59.8959536747,DRL_task,1,105,
3,0,3,0,,,5.82154512405,221,17,4,2041.105932,5,,,,,,,2017_Aug_01_1043,59.8959536747,DRL_task,1,105,
3,0,3,0,,,4.00432682037,221,18,4,2045.10995317,5,,,,,,,2017_Aug_01_1043,59.8959536747,DRL_task,1,105,
3,0,3,0,,,5.37217903137,222,19,4,2050.482445,5,,,,,,,2017_Aug_01_1043,59.8959536747,DRL_task,1,105,
3,0,3,0,,,6.75712609291,223,20,4,2057.23951197,5,,,,,,,2017_Aug_01_1043,59.8959536747,DRL_task,1,105,
3,0,3,0,,,4.4561009407,223,21,4,2061.69401598,5,,,,,,,2017_Aug_01_1043,59.8959536747,DRL_task,1,105,
3,0,3,0,,,5.7892100811,224,22,4,2067.48367095,5,,,,,,,2017_Aug_01_1043,59.8959536747,DRL_task,1,105,
3,0,3,0,,,10.1094708443,225,23,4,2077.59436417,5,,,,,,,2017_Aug_01_1043,59.8959536747,DRL_task,1,105,
3,0,3,0,,,6.80720305443,226,24,4,2084.40193796,5,,,,,,,2017_Aug_01_1043,59.8959536747,DRL_task,1,105,
3,0,3,0,,,5.55716514587,227,25,4,2089.95738602,5,,,,,,,2017_Aug_01_1043,59.8959536747,DRL_task,1,105,
3,0,3,0,,,4.93730998039,227,26,4,2094.89566708,5,,,,,,,2017_Aug_01_1043,59.8959536747,DRL_task,1,105,
3,0,3,0,,,4.73976397514,227,27,4,2099.63422203,5,,,,,,,2017_Aug_01_1043,59.8959536747,DRL_task,1,105,
3,0,3,0,,,5.93791890144,228,28,4,2105.57375598,5,,,,,,,2017_Aug_01_1043,59.8959536747,DRL_task,1,105,
3,0,3,0,,,7.22444295883,229,29,4,2112.79787898,5,,,,,,,2017_Aug_01_1043,59.8959536747,DRL_task,1,105,
3,0,3,0,,,7.32543110847,230,30,4,2120.12222314,5,,,,,,,2017_Aug_01_1043,59.8959536747,DRL_task,1,105,
3,0,3,0,,,6.97277808189,231,31,4,2127.09646606,5,,,,,,,2017_Aug_01_1043,59.8959536747,DRL_task,1,105,
3,0,3,0,,,4.9554297924,231,32,4,2132.05141807,5,,,,,,,2017_Aug_01_1043,59.8959536747,DRL_task,1,105,
3,0,3,0,,,4.52401304245,231,33,4,2136.57307506,5,,,,,,,2017_Aug_01_1043,59.8959536747,DRL_task,1,105,
3,0,3,0,,,5.55324101448,232,34,4,2142.12870407,5,,,,,,,2017_Aug_01_1043,59.8959536747,DRL_task,1,105,
3,0,3,0,,,10.4458110332,233,35,4,2152.57314014,5,,,,,,,2017_Aug_01_1043,59.8959536747,DRL_task,1,105,
3,0,3,0,,,8.45735406876,234,36,4,2161.03190207,5,,,,,,,2017_Aug_01_1043,59.8959536747,DRL_task,1,105,
3,0,3,0,,,6.43997693062,235,37,4,2167.47223401,5,,,,,,,2017_Aug_01_1043,59.8959536747,DRL_task,1,105,
3,0,3,0,,,6.9418990612,236,38,4,2174.41286898,5,,,,,,,2017_Aug_01_1043,59.8959536747,DRL_task,1,105,
3,0,3,0,,,5.55620098114,237,39,4,2179.96849513,5,,,,,,,2017_Aug_01_1043,59.8959536747,DRL_task,1,105,
3,0,3,0,,,5.6209359169,238,40,4,2185.59128213,5,,,,,,,2017_Aug_01_1043,59.8959536747,DRL_task,1,105,
3,0,3,0,,,5.47257709503,239,41,4,2191.08046913,5,,,,,,,2017_Aug_01_1043,59.8959536747,DRL_task,1,105,
3,0,3,0,,,7.05848193169,240,42,4,2198.12117195,5,,,,,,,2017_Aug_01_1043,59.8959536747,DRL_task,1,105,
3,0,3,0,,,5.15555405617,241,43,4,2203.27653503,5,,,,,,,2017_Aug_01_1043,59.8959536747,DRL_task,1,105,
3,0,3,0,,,6.33885097504,242,44,4,2209.61639714,5,,,,,,,2017_Aug_01_1043,59.8959536747,DRL_task,1,105,
3,0,3,0,,,6.13982009888,243,45,4,2215.75633311,5,,,,,,,2017_Aug_01_1043,59.8959536747,DRL_task,1,105,
3,0,3,0,,,5.85605096817,244,46,4,2221.61256814,5,,,,,,,2017_Aug_01_1043,59.8959536747,DRL_task,1,105,
3,0,3,0,,,5.88964700699,245,47,4,2227.50188398,5,,,,,,,2017_Aug_01_1043,59.8959536747,DRL_task,1,105,
3,0,3,0,,,6.42454099655,246,48,4,2233.92503214,5,,,,,,,2017_Aug_01_1043,59.8959536747,DRL_task,1,105,
3,0,3,0,,,5.78852081299,247,49,4,2239.71483803,5,,,,,,,2017_Aug_01_1043,59.8959536747,DRL_task,1,105,
3,0,3,0,,,5.60674405098,248,50,4,2245.33754897,5,,,,,,,2017_Aug_01_1043,59.8959536747,DRL_task,1,105,
3,0,3,0,,,6.13873100281,249,51,4,2251.4602201,5,,,,,,,2017_Aug_01_1043,59.8959536747,DRL_task,1,105,
3,0,3,0,,,5.95775318146,250,52,4,2257.41686606,5,,,,,,,2017_Aug_01_1043,59.8959536747,DRL_task,1,105,
3,0,3,0,,,5.65429377556,251,53,4,2263.07283497,5,,,,,,,2017_Aug_01_1043,59.8959536747,DRL_task,1,105,
3,0,3,0,,,4.68842506409,251,54,4,2267.76094317,5,,,,,,,2017_Aug_01_1043,59.8959536747,DRL_task,1,105,
3,0,3,0,,,8.24200892448,252,55,4,2276.00292516,5,,,,,,,2017_Aug_01_1043,59.8959536747,DRL_task,1,105,
3,0,3,0,,,6.00627207756,253,56,4,2282.00919509,5,,,,,,,2017_Aug_01_1043,59.8959536747,DRL_task,1,105,
3,0,3,0,,,7.04178714752,254,57,4,2289.05024505,5,,,,,,,2017_Aug_01_1043,59.8959536747,DRL_task,1,105,
3,0,3,0,,,6.13991498947,255,58,4,2295.19002509,5,,,,,,,2017_Aug_01_1043,59.8959536747,DRL_task,1,105,
3,0,3,0,,,9.22523093224,256,59,4,2304.41620708,5,,,,,,,2017_Aug_01_1043,59.8959536747,DRL_task,1,105,
3,0,3,0,,,5.14000606537,257,60,4,2309.55486012,5,,,,,,,2017_Aug_01_1043,59.8959536747,DRL_task,1,105,
3,0,3,0,,,6.40694379807,258,61,4,2315.97800398,5,,,,,,,2017_Aug_01_1043,59.8959536747,DRL_task,1,105,
3,0,3,0,,,8.17365503311,259,62,4,2324.13706899,5,,,,,,,2017_Aug_01_1043,59.8959536747,DRL_task,1,105,
3,0,3,0,,,7.49154806137,260,63,4,2331.62819314,5,,,,,,,2017_Aug_01_1043,59.8959536747,DRL_task,1,105,
3,0,3,0,,,6.02395510674,261,64,4,2337.65132713,5,,,,,,,2017_Aug_01_1043,59.8959536747,DRL_task,1,105,
3,0,3,0,,,5.73805594444,262,65,4,2343.39065313,5,,,,,,,2017_Aug_01_1043,59.8959536747,DRL_task,1,105,
3,0,3,0,,,5.43946504593,263,66,4,2348.82955003,5,,,,,,,2017_Aug_01_1043,59.8959536747,DRL_task,1,105,
3,0,3,0,,,2.65282297134,263,67,4,2351.48235917,5,,,,,,,2017_Aug_01_1043,59.8959536747,DRL_task,1,105,
3,0,3,0,,,3.3714158535,263,68,4,2354.85276103,5,,,,,,,2017_Aug_01_1043,59.8959536747,DRL_task,1,105,
3,0,3,0,,,3.8538980484,263,69,4,2358.70667696,5,,,,,,,2017_Aug_01_1043,59.8959536747,DRL_task,1,105,
3,0,3,0,,,5.52255892754,264,70,4,2364.22909617,5,,,,,,,2017_Aug_01_1043,59.8959536747,DRL_task,1,105,
3,0,3,0,,,7.00588202477,265,71,4,2371.23664117,5,,,,,,,2017_Aug_01_1043,59.8959536747,DRL_task,1,105,
3,0,3,0,,,7.29235720634,266,72,4,2378.52746415,5,,,,,,,2017_Aug_01_1043,59.8959536747,DRL_task,1,105,
3,0,3,0,,,10.092869997,267,73,4,2388.62148499,5,,,,,,,2017_Aug_01_1043,59.8959536747,DRL_task,1,105,
3,0,3,0,,,5.50565099716,268,74,4,2394.12715602,5,,,,,,,2017_Aug_01_1043,59.8959536747,DRL_task,1,105,
3,0,3,0,,,5.07329583168,269,75,4,2399.19949818,5,,,,,,,2017_Aug_01_1043,59.8959536747,DRL_task,1,105,
3,0,3,0,,,5.42123317719,270,76,4,2404.62197304,5,,,,,,,2017_Aug_01_1043,59.8959536747,DRL_task,1,105,
3,0,3,0,,,5.40675091743,271,77,4,2410.02732706,5,,,,,,,2017_Aug_01_1043,59.8959536747,DRL_task,1,105,
3,0,3,0,,,4.42143106461,271,78,4,2414.44860005,5,,,,,,,2017_Aug_01_1043,59.8959536747,DRL_task,1,105,
3,0,3,0,,,5.27255582809,272,79,4,2419.73756218,5,,,,,,,2017_Aug_01_1043,59.8959536747,DRL_task,1,105,
3,0,3,0,,,7.60753417015,273,80,4,2427.32908916,5,,,,,,,2017_Aug_01_1043,59.8959536747,DRL_task,1,105,
3,0,3,0,,,5.35552287102,274,81,4,2432.68471503,5,,,,,,,2017_Aug_01_1043,59.8959536747,DRL_task,1,105,
3,0,3,0,,,13.9972419739,275,82,4,2446.68255496,5,,,,,,,2017_Aug_01_1043,59.8959536747,DRL_task,1,105,
3,0,3,0,,,6.43991804123,276,83,4,2453.12274504,5,,,,,,,2017_Aug_01_1043,59.8959536747,DRL_task,1,105,
3,0,3,0,,,7.25992894173,277,84,4,2460.39706206,5,,,,,,,2017_Aug_01_1043,59.8959536747,DRL_task,1,105,
3,0,3,0,,,0.298094987869,277,85,4,2460.68065214,5,,,,,,,2017_Aug_01_1043,59.8959536747,DRL_task,1,105,
3,0,3,0,,,4.40566110611,277,86,4,2465.08545208,5,,,,,,,2017_Aug_01_1043,59.8959536747,DRL_task,1,105,
3,0,3,0,,,5.97206687927,278,87,4,2471.05826807,5,,,,,,,2017_Aug_01_1043,59.8959536747,DRL_task,1,105,
3,0,3,0,,,6.23987913132,279,88,4,2477.29815817,5,,,,,,,2017_Aug_01_1043,59.8959536747,DRL_task,1,105,
3,0,3,0,,,7.60785388947,280,89,4,2484.90633702,5,,,,,,,2017_Aug_01_1043,59.8959536747,DRL_task,1,105,
3,0,3,0,,,7.09079003334,281,90,4,2491.99699616,5,,,,,,,2017_Aug_01_1043,59.8959536747,DRL_task,1,105,
3,0,3,0,,,7.20865702629,282,91,4,2499.20469713,5,,,,,,,2017_Aug_01_1043,59.8959536747,DRL_task,1,105,
3,0,3,0,,,5.27107596397,283,92,4,2504.476897,5,,,,,,,2017_Aug_01_1043,59.8959536747,DRL_task,1,105,
3,0,3,0,,,4.93857812881,283,93,4,2509.44901013,5,,,,,,,2017_Aug_01_1043,59.8959536747,DRL_task,1,105,
3,0,3,0,,,4.47129297256,283,94,4,2513.88681817,5,,,,,,,2017_Aug_01_1043,59.8959536747,DRL_task,1,105,
3,0,3,0,,,5.65751004219,284,95,4,2519.55948901,5,,,,,,,2017_Aug_01_1043,59.8959536747,DRL_task,1,105,
3,0,3,0,,,5.88803386688,285,96,4,2525.43229413,5,,,,,,,2017_Aug_01_1043,59.8959536747,DRL_task,1,105,
3,0,3,0,,,,,,,,,"['space', 'space', 'space', 'space', 'space', 'space', 'space', 'space', 'space', 'space', 'space', 'space', 'space', 'space', 'space', 'space', 'space', 'space', 'space', 'space', 'space', 'space', 'space', 'space', 'space', 'space', 'space', 'space', 'space', 'space', 'space', 'space', 'space', 'space', 'space', 'space', 'space', 'space', 'space', 'space', 'space', 'space', 'space', 'space', 'space', 'space', 'space', 'space', 'space', 'space', 'space', 'space', 'space', 'space', 'space', 'space', 'space', 'space', 'space', 'space', 'space', 'space', 'space', 'space', 'space', 'space', 'space', 'space', 'space', 'space', 'space', 'space', 'space', 'space', 'space', 'space', 'space', 'space', 'space', 'space', 'space', 'space', 'space', 'space', 'space', 'space', 'space', 'space', 'space', 'space', 'space', 'space', 'space', 'space', 'space', 'space']","[5.161970138549805, 8.965988159179688, 14.139300107955933, 19.41032910346985, 24.098793029785156, 30.32193422317505, 36.32849407196045, 42.06872200965881, 49.39142417907715, 56.0158371925354, 64.00724911689758, 70.5154390335083, 76.07171607017517, 87.16616320610046, 92.67072916030884, 105.00169706344604, 110.8232421875, 114.82756900787354, 120.1997480392456, 126.95687413215637, 131.41297507286072, 137.20218515396118, 147.31165599822998, 154.11885905265808, 159.6760241985321, 164.61333417892456, 169.353098154068, 175.29101705551147, 182.51546001434326, 189.840891122818, 196.8136692047119, 201.7690989971161, 206.29311203956604, 211.84635305404663, 222.29216408729553, 230.74951815605164, 237.18949508666992, 244.13139414787292, 249.68759512901306, 255.3085310459137, 260.78110814094543, 267.83959007263184, 272.99514412879944, 279.33399510383606, 285.473815202713, 291.3298661708832, 297.2195131778717, 303.6440541744232, 309.4325749874115, 315.0393190383911, 321.17805004119873, 327.13580322265625, 332.7900969982147, 337.47852206230164, 345.7205309867859, 351.7268030643463, 358.7685902118683, 364.9085052013397, 374.13373613357544, 379.2737421989441, 385.6806859970093, 393.85434103012085, 401.3458890914917, 407.36984419822693, 413.1079001426697, 418.54736518859863, 421.2001881599426, 424.571604013443, 428.4255020618439, 433.9480609893799, 440.9539430141449, 448.2463002204895, 458.33917021751404, 463.8448212146759, 468.9181170463562, 474.33935022354126, 479.74610114097595, 484.16753220558167, 489.44008803367615, 497.0476222038269, 502.40314507484436, 516.4003870487213, 522.8403050899506, 530.1002340316772, 530.3983290195465, 534.8039901256561, 540.7760570049286, 547.0159361362457, 554.6237900257111, 561.7145800590515, 568.9232370853424, 574.1943130493164, 579.1328911781311, 583.6041841506958, 589.2616941928864, 595.1497280597687]",space,10.0455200672,,,2017_Aug_01_1043,59.8959536747,DRL_task,1,105,
4,0,4,0,,,1.69728398323,285,1,5,2543.21774316,5,,,,,,,2017_Aug_01_1043,59.8959536747,DRL_task,1,105,
4,0,4,0,,,0.0654850006104,285,2,5,2543.29989004,5,,,,,,,2017_Aug_01_1043,59.8959536747,DRL_task,1,105,
4,0,4,0,,,4.28925609589,285,3,5,2547.57202196,5,,,,,,,2017_Aug_01_1043,59.8959536747,DRL_task,1,105,
4,0,4,0,,,4.93854880333,285,4,5,2552.54404211,5,,,,,,,2017_Aug_01_1043,59.8959536747,DRL_task,1,105,
4,0,4,0,,,5.92264699936,286,5,5,2558.43370008,5,,,,,,,2017_Aug_01_1043,59.8959536747,DRL_task,1,105,
4,0,4,0,,,9.64249610901,287,6,5,2568.07716918,5,,,,,,,2017_Aug_01_1043,59.8959536747,DRL_task,1,105,
4,0,4,0,,,7.75960588455,288,7,5,2575.83536601,5,,,,,,,2017_Aug_01_1043,59.8959536747,DRL_task,1,105,
4,0,4,0,,,5.68765115738,289,8,5,2581.52470303,5,,,,,,,2017_Aug_01_1043,59.8959536747,DRL_task,1,105,
4,0,4,0,,,6.84195590019,290,9,5,2588.38183212,5,,,,,,,2017_Aug_01_1043,59.8959536747,DRL_task,1,105,
4,0,4,0,,,8.70782113075,291,10,5,2597.07415414,5,,,,,,,2017_Aug_01_1043,59.8959536747,DRL_task,1,105,
4,0,4,0,,,10.1289129257,292,11,5,2607.20162201,5,,,,,,,2017_Aug_01_1043,59.8959536747,DRL_task,1,105,
4,0,4,0,,,9.00907301903,293,12,5,2616.21122599,5,,,,,,,2017_Aug_01_1043,59.8959536747,DRL_task,1,105,
4,0,4,0,,,8.85954904556,294,13,5,2625.08717895,5,,,,,,,2017_Aug_01_1043,59.8959536747,DRL_task,1,105,
4,0,4,0,,,9.42539095879,295,14,5,2634.49703598,5,,,,,,,2017_Aug_01_1043,59.8959536747,DRL_task,1,105,
4,0,4,0,,,7.80970788002,296,15,5,2642.30528903,5,,,,,,,2017_Aug_01_1043,59.8959536747,DRL_task,1,105,
4,0,4,0,,,6.72336602211,297,16,5,2649.02917099,5,,,,,,,2017_Aug_01_1043,59.8959536747,DRL_task,1,105,
4,0,4,0,,,7.52364802361,298,17,5,2656.58701515,5,,,,,,,2017_Aug_01_1043,59.8959536747,DRL_task,1,105,
4,0,4,0,,,5.63921809196,299,18,5,2662.1931231,5,,,,,,,2017_Aug_01_1043,59.8959536747,DRL_task,1,105,
4,0,4,0,,,6.30662798882,300,19,5,2668.49955416,5,,,,,,,2017_Aug_01_1043,59.8959536747,DRL_task,1,105,
4,0,4,0,,,8.66028308868,301,20,5,2677.15880609,5,,,,,,,2017_Aug_01_1043,59.8959536747,DRL_task,1,105,
4,0,4,0,,,7.0063188076,302,21,5,2684.16628599,5,,,,,,,2017_Aug_01_1043,59.8959536747,DRL_task,1,105,
4,0,4,0,,,8.49334907532,303,22,5,2692.65855598,5,,,,,,,2017_Aug_01_1043,59.8959536747,DRL_task,1,105,
4,0,4,0,,,8.62579393387,304,23,5,2701.28410912,5,,,,,,,2017_Aug_01_1043,59.8959536747,DRL_task,1,105,
4,0,4,0,,,11.5779051781,305,24,5,2712.86297107,5,,,,,,,2017_Aug_01_1043,59.8959536747,DRL_task,1,105,
4,0,4,0,,,9.04406499863,306,25,5,2721.92250514,5,,,,,,,2017_Aug_01_1043,59.8959536747,DRL_task,1,105,
4,0,4,0,,,6.33878183365,307,26,5,2728.24583602,5,,,,,,,2017_Aug_01_1043,59.8959536747,DRL_task,1,105,
4,0,4,0,,,5.7559800148,308,27,5,2734.00148916,5,,,,,,,2017_Aug_01_1043,59.8959536747,DRL_task,1,105,
4,0,4,0,,,5.17319202423,309,28,5,2739.19075298,5,,,,,,,2017_Aug_01_1043,59.8959536747,DRL_task,1,105,
4,0,4,0,,,7.2399289608,310,29,5,2746.41505313,5,,,,,,,2017_Aug_01_1043,59.8959536747,DRL_task,1,105,
4,0,4,0,,,7.7580139637,311,30,5,2754.17334318,5,,,,,,,2017_Aug_01_1043,59.8959536747,DRL_task,1,105,
4,0,4,0,,,6.3402941227,312,31,5,2760.51320601,5,,,,,,,2017_Aug_01_1043,59.8959536747,DRL_task,1,105,
4,0,4,0,,,4.30443787575,312,32,5,2764.81772399,5,,,,,,,2017_Aug_01_1043,59.8959536747,DRL_task,1,105,
4,0,4,0,,,6.25751900673,313,33,5,2771.09132195,5,,,,,,,2017_Aug_01_1043,59.8959536747,DRL_task,1,105,
4,0,4,0,,,8.60790419579,314,34,5,2779.68342614,5,,,,,,,2017_Aug_01_1043,59.8959536747,DRL_task,1,105,
4,0,4,0,,,9.16086888313,315,35,5,2788.8597641,5,,,,,,,2017_Aug_01_1043,59.8959536747,DRL_task,1,105,
4,0,4,0,,,1.15025210381,315,36,5,2789.99425006,5,,,,,,,2017_Aug_01_1043,59.8959536747,DRL_task,1,105,
4,0,4,0,,,5.12294888496,316,37,5,2795.13324308,5,,,,,,,2017_Aug_01_1043,59.8959536747,DRL_task,1,105,
4,0,4,0,,,10.0095081329,317,38,5,2805.12712407,5,,,,,,,2017_Aug_01_1043,59.8959536747,DRL_task,1,105,
4,0,4,0,,,10.2451789379,318,39,5,2815.38789415,5,,,,,,,2017_Aug_01_1043,59.8959536747,DRL_task,1,105,
4,0,4,0,,,7.5737760067,319,40,5,2822.945683,5,,,,,,,2017_Aug_01_1043,59.8959536747,DRL_task,1,105,
4,0,4,0,,,5.77368092537,320,41,5,2828.73544908,5,,,,,,,2017_Aug_01_1043,59.8959536747,DRL_task,1,105,
4,0,4,0,,,4.57051301003,320,42,5,2833.28990912,5,,,,,,,2017_Aug_01_1043,59.8959536747,DRL_task,1,105,
4,0,4,0,,,8.95943498611,321,43,5,2842.24932003,5,,,,,,,2017_Aug_01_1043,59.8959536747,DRL_task,1,105,
4,0,4,0,,,5.58929204941,322,44,5,2847.83857417,5,,,,,,,2017_Aug_01_1043,59.8959536747,DRL_task,1,105,
4,0,4,0,,,9.19396495819,323,45,5,2857.04830003,5,,,,,,,2017_Aug_01_1043,59.8959536747,DRL_task,1,105,
4,0,4,0,,,8.1075899601,324,46,5,2865.1401701,5,,,,,,,2017_Aug_01_1043,59.8959536747,DRL_task,1,105,
4,0,4,0,,,5.40660214424,325,47,5,2870.56274509,5,,,,,,,2017_Aug_01_1043,59.8959536747,DRL_task,1,105,
4,0,4,0,,,6.94107794762,326,48,5,2877.5032661,5,,,,,,,2017_Aug_01_1043,59.8959536747,DRL_task,1,105,
4,0,4,0,,,7.04046297073,327,49,5,2884.54385209,5,,,,,,,2017_Aug_01_1043,59.8959536747,DRL_task,1,105,
4,0,4,0,,,5.93835806847,328,50,5,2890.48369908,5,,,,,,,2017_Aug_01_1043,59.8959536747,DRL_task,1,105,
4,0,4,0,,,6.52473497391,329,51,5,2897.00710106,5,,,,,,,2017_Aug_01_1043,59.8959536747,DRL_task,1,105,
4,0,4,0,,,5.85653686523,330,52,5,2902.86328912,5,,,,,,,2017_Aug_01_1043,59.8959536747,DRL_task,1,105,
4,0,4,0,,,7.07276201248,331,53,5,2909.93744612,5,,,,,,,2017_Aug_01_1043,59.8959536747,DRL_task,1,105,
4,0,4,0,,,6.67364215851,332,54,5,2916.61103106,5,,,,,,,2017_Aug_01_1043,59.8959536747,DRL_task,1,105,
4,0,4,0,,,6.37330293655,333,55,5,2922.96781206,5,,,,,,,2017_Aug_01_1043,59.8959536747,DRL_task,1,105,
4,0,4,0,,,8.64346289635,334,56,5,2931.62720513,5,,,,,,,2017_Aug_01_1043,59.8959536747,DRL_task,1,105,
4,0,4,0,,,7.20620512962,335,57,5,2938.83461118,5,,,,,,,2017_Aug_01_1043,59.8959536747,DRL_task,1,105,
4,0,4,0,,,7.17457699776,336,58,5,2945.99225616,5,,,,,,,2017_Aug_01_1043,59.8959536747,DRL_task,1,105,
4,0,4,0,,,7.99193286896,337,59,5,2954.00051904,5,,,,,,,2017_Aug_01_1043,59.8959536747,DRL_task,1,105,
4,0,4,0,,,8.79237413406,338,60,5,2962.77655816,5,,,,,,,2017_Aug_01_1043,59.8959536747,DRL_task,1,105,
4,0,4,0,,,3.8876979351,338,61,5,2966.66382217,5,,,,,,,2017_Aug_01_1043,59.8959536747,DRL_task,1,105,
4,0,4,0,,,3.73731207848,338,62,5,2970.40110111,5,,,,,,,2017_Aug_01_1043,59.8959536747,DRL_task,1,105,
4,0,4,0,,,6.18911504745,339,63,5,2976.60766101,5,,,,,,,2017_Aug_01_1043,59.8959536747,DRL_task,1,105,
4,0,4,0,,,7.27499198914,340,64,5,2983.86534595,5,,,,,,,2017_Aug_01_1043,59.8959536747,DRL_task,1,105,
4,0,4,0,,,8.52575588226,341,65,5,2992.40790296,5,,,,,,,2017_Aug_01_1043,59.8959536747,DRL_task,1,105,
4,0,4,0,,,7.39089894295,342,66,5,2999.7990191,5,,,,,,,2017_Aug_01_1043,59.8959536747,DRL_task,1,105,
4,0,4,0,,,7.15929412842,343,67,5,3006.95670605,5,,,,,,,2017_Aug_01_1043,59.8959536747,DRL_task,1,105,
4,0,4,0,,,5.43710589409,344,68,5,3012.39554906,5,,,,,,,2017_Aug_01_1043,59.8959536747,DRL_task,1,105,
4,0,4,0,,,5.50628995895,345,69,5,3017.90130806,5,,,,,,,2017_Aug_01_1043,59.8959536747,DRL_task,1,105,
4,0,4,0,,,6.20618009567,346,70,5,3024.10805297,5,,,,,,,2017_Aug_01_1043,59.8959536747,DRL_task,1,105,
4,0,4,0,,,7.29260492325,347,71,5,3031.39875102,5,,,,,,,2017_Aug_01_1043,59.8959536747,DRL_task,1,105,
4,0,4,0,,,5.27075600624,348,72,5,3036.65424299,5,,,,,,,2017_Aug_01_1043,59.8959536747,DRL_task,1,105,
4,0,4,0,,,5.00657606125,349,73,5,3041.67636514,5,,,,,,,2017_Aug_01_1043,59.8959536747,DRL_task,1,105,
4,0,4,0,,,6.08928108215,350,74,5,3047.76624012,5,,,,,,,2017_Aug_01_1043,59.8959536747,DRL_task,1,105,
4,0,4,0,,,8.35926198959,351,75,5,3056.12505198,5,,,,,,,2017_Aug_01_1043,59.8959536747,DRL_task,1,105,
4,0,4,0,,,5.73921489716,352,76,5,3061.86427498,5,,,,,,,2017_Aug_01_1043,59.8959536747,DRL_task,1,105,
4,0,4,0,,,3.08611297607,352,77,5,3064.95092106,5,,,,,,,2017_Aug_01_1043,59.8959536747,DRL_task,1,105,
4,0,4,0,,,4.3552069664,352,78,5,3069.30556607,5,,,,,,,2017_Aug_01_1043,59.8959536747,DRL_task,1,105,
4,0,4,0,,,5.35542702675,353,79,5,3074.69438505,5,,,,,,,2017_Aug_01_1043,59.8959536747,DRL_task,1,105,
4,0,4,0,,,11.6777920723,354,80,5,3086.32343197,5,,,,,,,2017_Aug_01_1043,59.8959536747,DRL_task,1,105,
4,0,4,0,,,5.62260603905,355,81,5,3091.9460361,5,,,,,,,2017_Aug_01_1043,59.8959536747,DRL_task,1,105,
4,0,4,0,,,6.25657105446,356,82,5,3098.20267105,5,,,,,,,2017_Aug_01_1043,59.8959536747,DRL_task,1,105,
4,0,4,0,,,7.27562379837,357,83,5,3105.49347901,5,,,,,,,2017_Aug_01_1043,59.8959536747,DRL_task,1,105,
4,0,4,0,,,5.23867917061,358,84,5,3110.732584,5,,,,,,,2017_Aug_01_1043,59.8959536747,DRL_task,1,105,
4,0,4,0,,,5.35457181931,359,85,5,3116.12164307,5,,,,,,,2017_Aug_01_1043,59.8959536747,DRL_task,1,105,
4,0,4,0,,,6.27477407455,360,86,5,3122.36161113,5,,,,,,,2017_Aug_01_1043,59.8959536747,DRL_task,1,105,
4,0,4,0,,,5.2721850872,361,87,5,3127.65020418,5,,,,,,,2017_Aug_01_1043,59.8959536747,DRL_task,1,105,
4,0,4,0,,,8.95812606812,362,88,5,3136.59292102,5,,,,,,,2017_Aug_01_1043,59.8959536747,DRL_task,1,105,
4,0,4,0,,,,,,,,,"['space', 'space', 'space', 'space', 'space', 'space', 'space', 'space', 'space', 'space', 'space', 'space', 'space', 'space', 'space', 'space', 'space', 'space', 'space', 'space', 'space', 'space', 'space', 'space', 'space', 'space', 'space', 'space', 'space', 'space', 'space', 'space', 'space', 'space', 'space', 'space', 'space', 'space', 'space', 'space', 'space', 'space', 'space', 'space', 'space', 'space', 'space', 'space', 'space', 'space', 'space', 'space', 'space', 'space', 'space', 'space', 'space', 'space', 'space', 'space', 'space', 'space', 'space', 'space', 'space', 'space', 'space', 'space', 'space', 'space', 'space', 'space', 'space', 'space', 'space', 'space', 'space', 'space', 'space', 'space', 'space', 'space', 'space', 'space', 'space', 'space', 'space', 'space']","[1.6972839832305908, 1.7627689838409424, 6.052025079727173, 10.99057388305664, 16.91322088241577, 26.55571699142456, 34.31532287597656, 40.00297403335571, 46.844929933547974, 55.55275106430054, 65.68166399002075, 74.69073700904846, 83.5502860546112, 92.97567701339722, 100.78538489341736, 107.50875091552734, 115.03239893913269, 120.67161703109741, 126.97824501991272, 135.6385281085968, 142.64484691619873, 151.1381959915161, 159.76398992538452, 171.3418951034546, 180.3859601020813, 186.72474193572998, 192.480721950531, 197.65391397476196, 204.89384293556213, 212.65185689926147, 218.9921510219574, 223.29658889770508, 229.5541079044342, 238.16201210021973, 247.32288098335266, 248.4731330871582, 253.5960819721222, 263.60559010505676, 273.85076904296875, 281.42454504966736, 287.1982259750366, 291.76873898506165, 300.72817397117615, 306.3174660205841, 315.511430978775, 323.6190209388733, 329.0256230831146, 335.9667010307312, 343.00716400146484, 348.94552206993103, 355.4702570438385, 361.3267939090729, 368.39955592155457, 375.07319808006287, 381.4465010166168, 390.08996391296387, 397.2961690425873, 404.47074604034424, 412.46267890930176, 421.2550530433655, 425.14275097846985, 428.8800630569458, 435.06917810440063, 442.3441700935364, 450.86992597579956, 458.26082491874695, 465.4201190471649, 470.85722494125366, 476.3635149002075, 482.5696949958801, 489.8622999191284, 495.13305592536926, 500.13963198661804, 506.22891306877136, 514.5881750583649, 520.3273899555206, 523.4135029315948, 527.768709897995, 533.1241369247437, 544.8019289970398, 550.424535036087, 556.6811060905457, 563.956729888916, 569.1954090595245, 574.54998087883, 580.8247549533844, 586.0969400405884, 595.0550661087036]",space,4.43960618973,,,2017_Aug_01_1043,59.8959536747,DRL_task,1,105,
5,0,5,0,,,2.38199591637,362,1,6,3149.55678797,5,,,,,,,2017_Aug_01_1043,59.8959536747,DRL_task,1,105,
5,0,5,0,,,3.50427508354,362,2,6,3153.07697606,5,,,,,,,2017_Aug_01_1043,59.8959536747,DRL_task,1,105,
5,0,5,0,,,6.42442989349,363,3,6,3159.50047302,5,,,,,,,2017_Aug_01_1043,59.8959536747,DRL_task,1,105,
5,0,5,0,,,6.50579118729,364,4,6,3166.00729108,5,,,,,,,2017_Aug_01_1043,59.8959536747,DRL_task,1,105,
5,0,5,0,,,6.92546987534,365,5,6,3172.93103099,5,,,,,,,2017_Aug_01_1043,59.8959536747,DRL_task,1,105,
5,0,5,0,,,7.85830593109,366,6,6,3180.78973317,5,,,,,,,2017_Aug_01_1043,59.8959536747,DRL_task,1,105,
5,0,5,0,,,6.0713660717,367,7,6,3186.84593916,5,,,,,,,2017_Aug_01_1043,59.8959536747,DRL_task,1,105,
5,0,5,0,,,7.55790710449,368,8,6,3194.40408301,5,,,,,,,2017_Aug_01_1043,59.8959536747,DRL_task,1,105,
5,0,5,0,,,6.24013185501,369,9,6,3200.66044307,5,,,,,,,2017_Aug_01_1043,59.8959536747,DRL_task,1,105,
5,0,5,0,,,9.86149096489,370,10,6,3210.52107215,5,,,,,,,2017_Aug_01_1043,59.8959536747,DRL_task,1,105,
5,0,5,0,,,4.75387811661,370,11,6,3215.27588105,5,,,,,,,2017_Aug_01_1043,59.8959536747,DRL_task,1,105,
5,0,5,0,,,4.73826384544,370,12,6,3219.99769711,5,,,,,,,2017_Aug_01_1043,59.8959536747,DRL_task,1,105,
5,0,5,0,,,6.75864505768,371,13,6,3226.77130914,5,,,,,,,2017_Aug_01_1043,59.8959536747,DRL_task,1,105,
5,0,5,0,,,11.161383152,372,14,6,3237.93326998,5,,,,,,,2017_Aug_01_1043,59.8959536747,DRL_task,1,105,
5,0,5,0,,,8.275578022,373,15,6,3246.20849204,5,,,,,,,2017_Aug_01_1043,59.8959536747,DRL_task,1,105,
5,0,5,0,,,5.57133698463,374,16,6,3251.78096414,5,,,,,,,2017_Aug_01_1043,59.8959536747,DRL_task,1,105,
5,0,5,0,,,12.8635590076,375,17,6,3264.64453101,5,,,,,,,2017_Aug_01_1043,59.8959536747,DRL_task,1,105,
5,0,5,0,,,6.60692095757,376,18,6,3271.25154495,5,,,,,,,2017_Aug_01_1043,59.8959536747,DRL_task,1,105,
5,0,5,0,,,8.19296789169,377,19,6,3279.44381499,5,,,,,,,2017_Aug_01_1043,59.8959536747,DRL_task,1,105,
5,0,5,0,,,9.25857615471,378,20,6,3288.70339108,5,,,,,,,2017_Aug_01_1043,59.8959536747,DRL_task,1,105,
5,0,5,0,,,9.34318590164,379,21,6,3298.04662013,5,,,,,,,2017_Aug_01_1043,59.8959536747,DRL_task,1,105,
5,0,5,0,,,9.37800097466,380,22,6,3307.42315912,5,,,,,,,2017_Aug_01_1043,59.8959536747,DRL_task,1,105,
5,0,5,0,,,4.57163906097,380,23,6,3311.994488,5,,,,,,,2017_Aug_01_1043,59.8959536747,DRL_task,1,105,
5,0,5,0,,,4.50478291512,380,24,6,3316.49923301,5,,,,,,,2017_Aug_01_1043,59.8959536747,DRL_task,1,105,
5,0,5,0,,,8.89110302925,381,25,6,3325.39211011,5,,,,,,,2017_Aug_01_1043,59.8959536747,DRL_task,1,105,
5,0,5,0,,,6.90867495537,382,26,6,3332.29940414,5,,,,,,,2017_Aug_01_1043,59.8959536747,DRL_task,1,105,
5,0,5,0,,,4.92199397087,382,27,6,3337.22109199,5,,,,,,,2017_Aug_01_1043,59.8959536747,DRL_task,1,105,
5,0,5,0,,,7.14085006714,383,28,6,3344.36193609,5,,,,,,,2017_Aug_01_1043,59.8959536747,DRL_task,1,105,
5,0,5,0,,,7.47448992729,384,29,6,3351.83647609,5,,,,,,,2017_Aug_01_1043,59.8959536747,DRL_task,1,105,
5,0,5,0,,,7.87466812134,385,30,6,3359.71162701,5,,,,,,,2017_Aug_01_1043,59.8959536747,DRL_task,1,105,
5,0,5,0,,,5.98851490021,386,31,6,3365.70127511,5,,,,,,,2017_Aug_01_1043,59.8959536747,DRL_task,1,105,
5,0,5,0,,,6.65857696533,387,32,6,3372.35819602,5,,,,,,,2017_Aug_01_1043,59.8959536747,DRL_task,1,105,
5,0,5,0,,,3.95411300659,387,33,6,3376.31237602,5,,,,,,,2017_Aug_01_1043,59.8959536747,DRL_task,1,105,
5,0,5,0,,,4.23762798309,387,34,6,3380.55019403,5,,,,,,,2017_Aug_01_1043,59.8959536747,DRL_task,1,105,
5,0,5,0,,,8.34182810783,388,35,6,3388.89236307,5,,,,,,,2017_Aug_01_1043,59.8959536747,DRL_task,1,105,
5,0,5,0,,,7.54021406174,389,36,6,3396.43366694,5,,,,,,,2017_Aug_01_1043,59.8959536747,DRL_task,1,105,
5,0,5,0,,,12.0141990185,390,37,6,3408.44619513,5,,,,,,,2017_Aug_01_1043,59.8959536747,DRL_task,1,105,
5,0,5,0,,,9.59313583374,391,38,6,3418.03980398,5,,,,,,,2017_Aug_01_1043,59.8959536747,DRL_task,1,105,
5,0,5,0,,,9.24308800697,392,39,6,3427.28279996,5,,,,,,,2017_Aug_01_1043,59.8959536747,DRL_task,1,105,
5,0,5,0,,,10.5779922009,393,40,6,3437.86049008,5,,,,,,,2017_Aug_01_1043,59.8959536747,DRL_task,1,105,
5,0,5,0,,,8.37576985359,394,41,6,3446.23604703,5,,,,,,,2017_Aug_01_1043,59.8959536747,DRL_task,1,105,
5,0,5,0,,,6.13951992989,395,42,6,3452.37579417,5,,,,,,,2017_Aug_01_1043,59.8959536747,DRL_task,1,105,
5,0,5,0,,,9.32651305199,396,43,6,3461.70254612,5,,,,,,,2017_Aug_01_1043,59.8959536747,DRL_task,1,105,
5,0,5,0,,,8.60926198959,397,44,6,3470.31133199,5,,,,,,,2017_Aug_01_1043,59.8959536747,DRL_task,1,105,
5,0,5,0,,,6.62361311913,398,45,6,3476.93500113,5,,,,,,,2017_Aug_01_1043,59.8959536747,DRL_task,1,105,
5,0,5,0,,,6.85569190979,399,46,6,3483.79240108,5,,,,,,,2017_Aug_01_1043,59.8959536747,DRL_task,1,105,
5,0,5,0,,,5.87365198135,400,47,6,3489.66459012,5,,,,,,,2017_Aug_01_1043,59.8959536747,DRL_task,1,105,
5,0,5,0,,,4.92236614227,400,48,6,3494.58716512,5,,,,,,,2017_Aug_01_1043,59.8959536747,DRL_task,1,105,
5,0,5,0,,,4.87079191208,400,49,6,3499.45852709,5,,,,,,,2017_Aug_01_1043,59.8959536747,DRL_task,1,105,
5,0,5,0,,,5.62220311165,401,50,6,3505.08151197,5,,,,,,,2017_Aug_01_1043,59.8959536747,DRL_task,1,105,
5,0,5,0,,,5.37376880646,402,51,6,3510.45385218,5,,,,,,,2017_Aug_01_1043,59.8959536747,DRL_task,1,105,
5,0,5,0,,,5.80473208427,403,52,6,3516.26009297,5,,,,,,,2017_Aug_01_1043,59.8959536747,DRL_task,1,105,
5,0,5,0,,,6.40791392326,404,53,6,3522.666749,5,,,,,,,2017_Aug_01_1043,59.8959536747,DRL_task,1,105,
5,0,5,0,,,4.87060213089,404,54,6,3527.53850603,5,,,,,,,2017_Aug_01_1043,59.8959536747,DRL_task,1,105,
5,0,5,0,,,5.5059440136,405,55,6,3533.04417205,5,,,,,,,2017_Aug_01_1043,59.8959536747,DRL_task,1,105,
5,0,5,0,,,7.72636389732,406,56,6,3540.76896906,5,,,,,,,2017_Aug_01_1043,59.8959536747,DRL_task,1,105,
5,0,5,0,,,7.94169592857,407,57,6,3548.71064711,5,,,,,,,2017_Aug_01_1043,59.8959536747,DRL_task,1,105,
5,0,5,0,,,4.83826899529,407,58,6,3553.54927111,5,,,,,,,2017_Aug_01_1043,59.8959536747,DRL_task,1,105,
5,0,5,0,,,4.67151498795,407,59,6,3558.22081017,5,,,,,,,2017_Aug_01_1043,59.8959536747,DRL_task,1,105,
5,0,5,0,,,6.672301054,408,60,6,3564.89458799,5,,,,,,,2017_Aug_01_1043,59.8959536747,DRL_task,1,105,
5,0,5,0,,,9.72831201553,409,61,6,3574.62150502,5,,,,,,,2017_Aug_01_1043,59.8959536747,DRL_task,1,105,
5,0,5,0,,,7.37319898605,410,62,6,3581.99574018,5,,,,,,,2017_Aug_01_1043,59.8959536747,DRL_task,1,105,
5,0,5,0,,,6.54017710686,411,63,6,3588.53592396,5,,,,,,,2017_Aug_01_1043,59.8959536747,DRL_task,1,105,
5,0,5,0,,,7.2420399189,412,64,6,3595.77714205,5,,,,,,,2017_Aug_01_1043,59.8959536747,DRL_task,1,105,
5,0,5,0,,,5.10584497452,413,65,6,3600.88253307,5,,,,,,,2017_Aug_01_1043,59.8959536747,DRL_task,1,105,
5,0,5,0,,,5.67112898827,414,66,6,3606.55496216,5,,,,,,,2017_Aug_01_1043,59.8959536747,DRL_task,1,105,
5,0,5,0,,,5.07323098183,415,67,6,3611.6269691,5,,,,,,,2017_Aug_01_1043,59.8959536747,DRL_task,1,105,
5,0,5,0,,,6.47349715233,416,68,6,3618.10043311,5,,,,,,,2017_Aug_01_1043,59.8959536747,DRL_task,1,105,
5,0,5,0,,,6.84056186676,417,69,6,3624.94116998,5,,,,,,,2017_Aug_01_1043,59.8959536747,DRL_task,1,105,
5,0,5,0,,,7.04093909264,418,70,6,3631.98173404,5,,,,,,,2017_Aug_01_1043,59.8959536747,DRL_task,1,105,
5,0,5,0,,,8.50869107246,419,71,6,3640.49084115,5,,,,,,,2017_Aug_01_1043,59.8959536747,DRL_task,1,105,
5,0,5,0,,,10.244440794,420,72,6,3650.73488808,5,,,,,,,2017_Aug_01_1043,59.8959536747,DRL_task,1,105,
5,0,5,0,,,6.5401802063,421,73,6,3657.27509308,5,,,,,,,2017_Aug_01_1043,59.8959536747,DRL_task,1,105,
5,0,5,0,,,4.97032594681,421,74,6,3662.24731708,5,,,,,,,2017_Aug_01_1043,59.8959536747,DRL_task,1,105,
5,0,5,0,,,6.54023098946,422,75,6,3668.78740001,5,,,,,,,2017_Aug_01_1043,59.8959536747,DRL_task,1,105,
5,0,5,0,,,7.74128389359,423,76,6,3676.52897096,5,,,,,,,2017_Aug_01_1043,59.8959536747,DRL_task,1,105,
5,0,5,0,,,7.1760020256,424,77,6,3683.702847,5,,,,,,,2017_Aug_01_1043,59.8959536747,DRL_task,1,105,
5,0,5,0,,,6.40531301498,425,78,6,3690.10965204,5,,,,,,,2017_Aug_01_1043,59.8959536747,DRL_task,1,105,
5,0,5,0,,,11.1462569237,426,79,6,3701.25432205,5,,,,,,,2017_Aug_01_1043,59.8959536747,DRL_task,1,105,
5,0,5,0,,,7.67503619194,427,80,6,3708.92953396,5,,,,,,,2017_Aug_01_1043,59.8959536747,DRL_task,1,105,
5,0,5,0,,,5.93962097168,428,81,6,3714.86907911,5,,,,,,,2017_Aug_01_1043,59.8959536747,DRL_task,1,105,
5,0,5,0,,,6.03928804398,429,82,6,3720.90898395,5,,,,,,,2017_Aug_01_1043,59.8959536747,DRL_task,1,105,
5,0,5,0,,,6.44049096107,430,83,6,3727.34886909,5,,,,,,,2017_Aug_01_1043,59.8959536747,DRL_task,1,105,
5,0,5,0,,,3.53549098969,430,84,6,3730.88599801,5,,,,,,,2017_Aug_01_1043,59.8959536747,DRL_task,1,105,
5,0,5,0,,,5.07354283333,431,85,6,3735.95801711,5,,,,,,,2017_Aug_01_1043,59.8959536747,DRL_task,1,105,
5,0,5,0,,,5.37089920044,432,86,6,3741.33050609,5,,,,,,,2017_Aug_01_1043,59.8959536747,DRL_task,1,105,
5,0,5,0,,,4.47265696526,432,87,6,3745.80192518,5,,,,,,,2017_Aug_01_1043,59.8959536747,DRL_task,1,105,
5,0,5,0,,,,,,,,,"['space', 'space', 'space', 'space', 'space', 'space', 'space', 'space', 'space', 'space', 'space', 'space', 'space', 'space', 'space', 'space', 'space', 'space', 'space', 'space', 'space', 'space', 'space', 'space', 'space', 'space', 'space', 'space', 'space', 'space', 'space', 'space', 'space', 'space', 'space', 'space', 'space', 'space', 'space', 'space', 'space', 'space', 'space', 'space', 'space', 'space', 'space', 'space', 'space', 'space', 'space', 'space', 'space', 'space', 'space', 'space', 'space', 'space', 'space', 'space', 'space', 'space', 'space', 'space', 'space', 'space', 'space', 'space', 'space', 'space', 'space', 'space', 'space', 'space', 'space', 'space', 'space', 'space', 'space', 'space', 'space', 'space', 'space', 'space', 'space', 'space', 'space']","[2.381995916366577, 5.886270999908447, 12.3107008934021, 18.816492080688477, 25.74196195602417, 33.60026788711548, 39.67163395881653, 47.229541063308716, 53.4696729183197, 63.33116388320923, 68.0850419998169, 72.82330584526062, 79.58195090293884, 90.7433340549469, 99.01891207695007, 104.59024906158447, 117.45380806922913, 124.06072902679443, 132.25369691848755, 141.5122730731964, 150.85545897483826, 160.2334599494934, 164.80509901046753, 169.30988192558289, 178.20098495483398, 185.10965991020203, 190.031653881073, 197.17250394821167, 204.64699387550354, 212.52166199684143, 218.51017689704895, 225.16875386238098, 229.12286686897278, 233.36049485206604, 241.7023229598999, 249.24253702163696, 261.25673604011536, 270.8498718738556, 280.09295988082886, 290.6709520816803, 299.0467219352722, 305.1862418651581, 314.5127549171448, 323.1220169067383, 329.74563002586365, 336.6013219356537, 342.47497391700745, 347.3973400592804, 352.26813197135925, 357.8903350830078, 363.26410388946533, 369.0688359737396, 375.4767498970032, 380.34735202789307, 385.85329604148865, 393.57965993881226, 401.52135586738586, 406.3596248626709, 411.03113985061646, 417.7034409046173, 427.43175292015076, 434.8049519062042, 441.3451290130615, 448.58716893196106, 453.6930139064789, 459.3641428947449, 464.43737387657166, 470.91087102890015, 477.7514328956604, 484.7923719882965, 493.3010630607605, 503.5455038547516, 510.0856840610504, 515.0560100078583, 521.5962409973145, 529.3375248908997, 536.5135269165039, 542.918839931488, 554.0650968551636, 561.7401330471039, 567.6797540187836, 573.7190420627594, 580.1595330238342, 583.6950240135193, 588.7685668468475, 594.139466047287, 598.6121230125427]",space,5.35767602921,,,2017_Aug_01_1043,59.8959536747,DRL_task,1,105,
,,,,,,,,,,,,,,,,space,2.17035508156,2017_Aug_01_1043,59.8959536747,DRL_task,1,105,
