trials.thisRepN,trials.thisTrialN,trials.thisN,trials.thisIndex,trials.thisTrial,Fixed_Interval_Loop.thisRepN,Fixed_Interval_Loop.thisTrialN,Fixed_Interval_Loop.thisN,Fixed_Interval_Loop.thisIndex,Peak_Interval_Loop.thisRepN,Peak_Interval_Loop.thisTrialN,Peak_Interval_Loop.thisN,Peak_Interval_Loop.thisIndex,feedback_Loop.thisRepN,feedback_Loop.thisTrialN,feedback_Loop.thisN,feedback_Loop.thisIndex,Break_Loop.thisRepN,Break_Loop.thisTrialN,Break_Loop.thisN,Break_Loop.thisIndex,Fixed_Interval_Loop.thisTrial,instructions_key.keys,instructions_key.rt,fixed_response.keys,fixed_response.rt,trial_number,is_fi_trial,is_pi_trial,response_time,score,total_score,reward,cost,peak_response.keys,peak_response.rt,date,frameRate,expName,session,participant,
,,,,,,,,,,,,,,,,,,,,,,space,4.64865493774,,,,,,,,,,,,,2016_May_04_1307,59.8826989521,Peak_procedure,002,DMF,
0,0,0,0,None,0,0,0,0,,,,,,,,,,,,,None,,,"['space', 'space', 'space', 'space', 'space']","[2.0167391300201416, 2.232461929321289, 2.4011380672454834, 2.585400104522705, 3.0689079761505127]",,,,,,,,,,,2016_May_04_1307,59.8826989521,Peak_procedure,002,DMF,
0,0,0,0,None,,,,,,,,,0,0,0,0,,,,,,,,,,1,1,False,2.01673913002,0.6,0.6,1,0.1,,,2016_May_04_1307,59.8826989521,Peak_procedure,002,DMF,
0,0,0,0,None,,,,,,,,,0,0,0,0,,,,,,,,,,1,1,False,2.23246192932,0.6,0.6,1,0.1,,,2016_May_04_1307,59.8826989521,Peak_procedure,002,DMF,
0,0,0,0,None,,,,,,,,,0,0,0,0,,,,,,,,,,1,1,False,2.40113806725,0.6,0.6,1,0.1,,,2016_May_04_1307,59.8826989521,Peak_procedure,002,DMF,
0,0,0,0,None,,,,,,,,,0,0,0,0,,,,,,,,,,1,1,False,2.58540010452,0.6,0.6,1,0.1,,,2016_May_04_1307,59.8826989521,Peak_procedure,002,DMF,
0,0,0,0,None,,,,,,,,,0,0,0,0,,,,,,,,,,1,1,False,3.06890797615,0.6,0.6,1,0.1,,,2016_May_04_1307,59.8826989521,Peak_procedure,002,DMF,
0,0,0,0,None,,,,,,,,,0,0,0,0,,,,,,,,,,,,,,,,,,,,2016_May_04_1307,59.8826989521,Peak_procedure,002,DMF,
0,0,0,0,None,,,,,,,,,,,,,,,,,,,,,,,,,,,,,,,,2016_May_04_1307,59.8826989521,Peak_procedure,002,DMF,
1,0,1,0,None,0,0,0,0,,,,,,,,,,,,,None,,,"['space', 'space', 'space', 'space', 'space', 'space']","[0.00024318695068359375, 2.0835721492767334, 2.3004720211029053, 2.4508731365203857, 2.9518990516662598, 3.1355831623077393]",,,,,,,,,,,2016_May_04_1307,59.8826989521,Peak_procedure,002,DMF,
1,0,1,0,None,,,,,,,,,0,0,0,0,,,,,,,,,,2,1,False,0.000243186950684,0.5,1.1,1,0.1,,,2016_May_04_1307,59.8826989521,Peak_procedure,002,DMF,
1,0,1,0,None,,,,,,,,,0,0,0,0,,,,,,,,,,2,1,False,2.08357214928,0.5,1.1,1,0.1,,,2016_May_04_1307,59.8826989521,Peak_procedure,002,DMF,
1,0,1,0,None,,,,,,,,,0,0,0,0,,,,,,,,,,2,1,False,2.3004720211,0.5,1.1,1,0.1,,,2016_May_04_1307,59.8826989521,Peak_procedure,002,DMF,
1,0,1,0,None,,,,,,,,,0,0,0,0,,,,,,,,,,2,1,False,2.45087313652,0.5,1.1,1,0.1,,,2016_May_04_1307,59.8826989521,Peak_procedure,002,DMF,
1,0,1,0,None,,,,,,,,,0,0,0,0,,,,,,,,,,2,1,False,2.95189905167,0.5,1.1,1,0.1,,,2016_May_04_1307,59.8826989521,Peak_procedure,002,DMF,
1,0,1,0,None,,,,,,,,,0,0,0,0,,,,,,,,,,2,1,False,3.13558316231,0.5,1.1,1,0.1,,,2016_May_04_1307,59.8826989521,Peak_procedure,002,DMF,
1,0,1,0,None,,,,,,,,,0,0,0,0,,,,,,,,,,,,,,,,,,,,2016_May_04_1307,59.8826989521,Peak_procedure,002,DMF,
1,0,1,0,None,,,,,,,,,,,,,,,,,,,,,,,,,,,,,,,,2016_May_04_1307,59.8826989521,Peak_procedure,002,DMF,
2,0,2,0,None,0,0,0,0,,,,,,,,,,,,,None,,,"['space', 'space', 'space', 'space', 'space']","[2.2321550846099854, 2.449018955230713, 2.63280987739563, 2.8331708908081055, 3.885607957839966]",,,,,,,,,,,2016_May_04_1307,59.8826989521,Peak_procedure,002,DMF,
2,0,2,0,None,,,,,,,,,0,0,0,0,,,,,,,,,,3,1,False,2.23215508461,0.6,1.7,1,0.1,,,2016_May_04_1307,59.8826989521,Peak_procedure,002,DMF,
2,0,2,0,None,,,,,,,,,0,0,0,0,,,,,,,,,,3,1,False,2.44901895523,0.6,1.7,1,0.1,,,2016_May_04_1307,59.8826989521,Peak_procedure,002,DMF,
2,0,2,0,None,,,,,,,,,0,0,0,0,,,,,,,,,,3,1,False,2.6328098774,0.6,1.7,1,0.1,,,2016_May_04_1307,59.8826989521,Peak_procedure,002,DMF,
2,0,2,0,None,,,,,,,,,0,0,0,0,,,,,,,,,,3,1,False,2.83317089081,0.6,1.7,1,0.1,,,2016_May_04_1307,59.8826989521,Peak_procedure,002,DMF,
2,0,2,0,None,,,,,,,,,0,0,0,0,,,,,,,,,,3,1,False,3.88560795784,0.6,1.7,1,0.1,,,2016_May_04_1307,59.8826989521,Peak_procedure,002,DMF,
2,0,2,0,None,,,,,,,,,0,0,0,0,,,,,,,,,,,,,,,,,,,,2016_May_04_1307,59.8826989521,Peak_procedure,002,DMF,
2,0,2,0,None,,,,,,,,,,,,,,,,,,,,,,,,,,,,,,,,2016_May_04_1307,59.8826989521,Peak_procedure,002,DMF,
3,0,3,0,None,0,0,0,0,,,,,,,,,,,,,None,,,"['space', 'space', 'space', 'space', 'space']","[0.000225067138671875, 2.5806920528411865, 2.7652242183685303, 2.932352066040039, 3.13270902633667]",,,,,,,,,,,2016_May_04_1307,59.8826989521,Peak_procedure,002,DMF,
3,0,3,0,None,,,,,,,,,0,0,0,0,,,,,,,,,,4,1,False,0.000225067138672,0.6,2.3,1,0.1,,,2016_May_04_1307,59.8826989521,Peak_procedure,002,DMF,
3,0,3,0,None,,,,,,,,,0,0,0,0,,,,,,,,,,4,1,False,2.58069205284,0.6,2.3,1,0.1,,,2016_May_04_1307,59.8826989521,Peak_procedure,002,DMF,
3,0,3,0,None,,,,,,,,,0,0,0,0,,,,,,,,,,4,1,False,2.76522421837,0.6,2.3,1,0.1,,,2016_May_04_1307,59.8826989521,Peak_procedure,002,DMF,
3,0,3,0,None,,,,,,,,,0,0,0,0,,,,,,,,,,4,1,False,2.93235206604,0.6,2.3,1,0.1,,,2016_May_04_1307,59.8826989521,Peak_procedure,002,DMF,
3,0,3,0,None,,,,,,,,,0,0,0,0,,,,,,,,,,4,1,False,3.13270902634,0.6,2.3,1,0.1,,,2016_May_04_1307,59.8826989521,Peak_procedure,002,DMF,
3,0,3,0,None,,,,,,,,,0,0,0,0,,,,,,,,,,,,,,,,,,,,2016_May_04_1307,59.8826989521,Peak_procedure,002,DMF,
3,0,3,0,None,,,,,,,,,,,,,,,,,,,,,,,,,,,,,,,,2016_May_04_1307,59.8826989521,Peak_procedure,002,DMF,
4,0,4,0,None,0,0,0,0,,,,,,,,,,,,,None,,,"['space', 'space', 'space', 'space', 'space', 'space', 'space', 'space', 'space']","[1.080066204071045, 1.2971789836883545, 1.514523983001709, 1.730483055114746, 1.9459831714630127, 2.633632183074951, 2.81787109375, 2.998385190963745, 4.001949071884155]",,,,,,,,,,,2016_May_04_1307,59.8826989521,Peak_procedure,002,DMF,
4,0,4,0,None,,,,,,,,,0,0,0,0,,,,,,,,,,5,1,False,1.08006620407,0.2,2.5,1,0.1,,,2016_May_04_1307,59.8826989521,Peak_procedure,002,DMF,
4,0,4,0,None,,,,,,,,,0,0,0,0,,,,,,,,,,5,1,False,1.29717898369,0.2,2.5,1,0.1,,,2016_May_04_1307,59.8826989521,Peak_procedure,002,DMF,
4,0,4,0,None,,,,,,,,,0,0,0,0,,,,,,,,,,5,1,False,1.514523983,0.2,2.5,1,0.1,,,2016_May_04_1307,59.8826989521,Peak_procedure,002,DMF,
4,0,4,0,None,,,,,,,,,0,0,0,0,,,,,,,,,,5,1,False,1.73048305511,0.2,2.5,1,0.1,,,2016_May_04_1307,59.8826989521,Peak_procedure,002,DMF,
4,0,4,0,None,,,,,,,,,0,0,0,0,,,,,,,,,,5,1,False,1.94598317146,0.2,2.5,1,0.1,,,2016_May_04_1307,59.8826989521,Peak_procedure,002,DMF,
4,0,4,0,None,,,,,,,,,0,0,0,0,,,,,,,,,,5,1,False,2.63363218307,0.2,2.5,1,0.1,,,2016_May_04_1307,59.8826989521,Peak_procedure,002,DMF,
4,0,4,0,None,,,,,,,,,0,0,0,0,,,,,,,,,,5,1,False,2.81787109375,0.2,2.5,1,0.1,,,2016_May_04_1307,59.8826989521,Peak_procedure,002,DMF,
4,0,4,0,None,,,,,,,,,0,0,0,0,,,,,,,,,,5,1,False,2.99838519096,0.2,2.5,1,0.1,,,2016_May_04_1307,59.8826989521,Peak_procedure,002,DMF,
4,0,4,0,None,,,,,,,,,0,0,0,0,,,,,,,,,,5,1,False,4.00194907188,0.2,2.5,1,0.1,,,2016_May_04_1307,59.8826989521,Peak_procedure,002,DMF,
4,0,4,0,None,,,,,,,,,0,0,0,0,,,,,,,,,,,,,,,,,,,,2016_May_04_1307,59.8826989521,Peak_procedure,002,DMF,
4,0,4,0,None,,,,,,,,,,,,,,,,,,,,,,,,,,,,,,,,2016_May_04_1307,59.8826989521,Peak_procedure,002,DMF,
5,0,5,0,None,0,0,0,0,,,,,,,,,,,,,None,,,"['space', 'space', 'space']","[0.0003249645233154297, 2.8521840572357178, 3.035841941833496]",,,,,,,,,,,2016_May_04_1307,59.8826989521,Peak_procedure,002,DMF,
5,0,5,0,None,,,,,,,,,0,0,0,0,,,,,,,,,,6,1,False,0.000324964523315,0.8,3.3,1,0.1,,,2016_May_04_1307,59.8826989521,Peak_procedure,002,DMF,
5,0,5,0,None,,,,,,,,,0,0,0,0,,,,,,,,,,6,1,False,2.85218405724,0.8,3.3,1,0.1,,,2016_May_04_1307,59.8826989521,Peak_procedure,002,DMF,
5,0,5,0,None,,,,,,,,,0,0,0,0,,,,,,,,,,6,1,False,3.03584194183,0.8,3.3,1,0.1,,,2016_May_04_1307,59.8826989521,Peak_procedure,002,DMF,
5,0,5,0,None,,,,,,,,,0,0,0,0,,,,,,,,,,,,,,,,,,,,2016_May_04_1307,59.8826989521,Peak_procedure,002,DMF,
5,0,5,0,None,,,,,,,,,,,,,,,,,,,,,,,,,,,,,,,,2016_May_04_1307,59.8826989521,Peak_procedure,002,DMF,
6,0,6,0,None,0,0,0,0,,,,,,,,,,,,,None,,,"['space', 'space', 'space', 'space', 'space', 'space']","[0.00024700164794921875, 1.447309970855713, 1.647618055343628, 1.8159370422363281, 1.9988160133361816, 3.701841115951538]",,,,,,,,,,,2016_May_04_1307,59.8826989521,Peak_procedure,002,DMF,
6,0,6,0,None,,,,,,,,,0,0,0,0,,,,,,,,,,7,1,False,0.000247001647949,0.5,3.8,1,0.1,,,2016_May_04_1307,59.8826989521,Peak_procedure,002,DMF,
6,0,6,0,None,,,,,,,,,0,0,0,0,,,,,,,,,,7,1,False,1.44730997086,0.5,3.8,1,0.1,,,2016_May_04_1307,59.8826989521,Peak_procedure,002,DMF,
6,0,6,0,None,,,,,,,,,0,0,0,0,,,,,,,,,,7,1,False,1.64761805534,0.5,3.8,1,0.1,,,2016_May_04_1307,59.8826989521,Peak_procedure,002,DMF,
6,0,6,0,None,,,,,,,,,0,0,0,0,,,,,,,,,,7,1,False,1.81593704224,0.5,3.8,1,0.1,,,2016_May_04_1307,59.8826989521,Peak_procedure,002,DMF,
6,0,6,0,None,,,,,,,,,0,0,0,0,,,,,,,,,,7,1,False,1.99881601334,0.5,3.8,1,0.1,,,2016_May_04_1307,59.8826989521,Peak_procedure,002,DMF,
6,0,6,0,None,,,,,,,,,0,0,0,0,,,,,,,,,,7,1,False,3.70184111595,0.5,3.8,1,0.1,,,2016_May_04_1307,59.8826989521,Peak_procedure,002,DMF,
6,0,6,0,None,,,,,,,,,0,0,0,0,,,,,,,,,,,,,,,,,,,,2016_May_04_1307,59.8826989521,Peak_procedure,002,DMF,
6,0,6,0,None,,,,,,,,,,,,,,,,,,,,,,,,,,,,,,,,2016_May_04_1307,59.8826989521,Peak_procedure,002,DMF,
7,0,7,0,None,0,0,0,0,,,,,,,,,,,,,None,,,"['space', 'space', 'space', 'space', 'space', 'space', 'space']","[0.00023889541625976562, 2.0231680870056152, 2.2041189670562744, 2.3710389137268066, 2.5572590827941895, 2.723115921020508, 3.292171001434326]",,,,,,,,,,,2016_May_04_1307,59.8826989521,Peak_procedure,002,DMF,
7,0,7,0,None,,,,,,,,,0,0,0,0,,,,,,,,,,8,1,False,0.00023889541626,0.4,4.2,1,0.1,,,2016_May_04_1307,59.8826989521,Peak_procedure,002,DMF,
7,0,7,0,None,,,,,,,,,0,0,0,0,,,,,,,,,,8,1,False,2.02316808701,0.4,4.2,1,0.1,,,2016_May_04_1307,59.8826989521,Peak_procedure,002,DMF,
7,0,7,0,None,,,,,,,,,0,0,0,0,,,,,,,,,,8,1,False,2.20411896706,0.4,4.2,1,0.1,,,2016_May_04_1307,59.8826989521,Peak_procedure,002,DMF,
7,0,7,0,None,,,,,,,,,0,0,0,0,,,,,,,,,,8,1,False,2.37103891373,0.4,4.2,1,0.1,,,2016_May_04_1307,59.8826989521,Peak_procedure,002,DMF,
7,0,7,0,None,,,,,,,,,0,0,0,0,,,,,,,,,,8,1,False,2.55725908279,0.4,4.2,1,0.1,,,2016_May_04_1307,59.8826989521,Peak_procedure,002,DMF,
7,0,7,0,None,,,,,,,,,0,0,0,0,,,,,,,,,,8,1,False,2.72311592102,0.4,4.2,1,0.1,,,2016_May_04_1307,59.8826989521,Peak_procedure,002,DMF,
7,0,7,0,None,,,,,,,,,0,0,0,0,,,,,,,,,,8,1,False,3.29217100143,0.4,4.2,1,0.1,,,2016_May_04_1307,59.8826989521,Peak_procedure,002,DMF,
7,0,7,0,None,,,,,,,,,0,0,0,0,,,,,,,,,,,,,,,,,,,,2016_May_04_1307,59.8826989521,Peak_procedure,002,DMF,
7,0,7,0,None,,,,,,,,,,,,,,,,,,,,,,,,,,,,,,,,2016_May_04_1307,59.8826989521,Peak_procedure,002,DMF,
8,0,8,0,None,0,0,0,0,,,,,,,,,,,,,None,,,"['space', 'space', 'space', 'space', 'space', 'space']","[0.00024008750915527344, 2.365365982055664, 2.5478858947753906, 2.7149579524993896, 2.866205930709839, 3.033329963684082]",,,,,,,,,,,2016_May_04_1307,59.8826989521,Peak_procedure,002,DMF,
8,0,8,0,None,,,,,,,,,0,0,0,0,,,,,,,,,,9,1,False,0.000240087509155,0.5,4.7,1,0.1,,,2016_May_04_1307,59.8826989521,Peak_procedure,002,DMF,
8,0,8,0,None,,,,,,,,,0,0,0,0,,,,,,,,,,9,1,False,2.36536598206,0.5,4.7,1,0.1,,,2016_May_04_1307,59.8826989521,Peak_procedure,002,DMF,
8,0,8,0,None,,,,,,,,,0,0,0,0,,,,,,,,,,9,1,False,2.54788589478,0.5,4.7,1,0.1,,,2016_May_04_1307,59.8826989521,Peak_procedure,002,DMF,
8,0,8,0,None,,,,,,,,,0,0,0,0,,,,,,,,,,9,1,False,2.7149579525,0.5,4.7,1,0.1,,,2016_May_04_1307,59.8826989521,Peak_procedure,002,DMF,
8,0,8,0,None,,,,,,,,,0,0,0,0,,,,,,,,,,9,1,False,2.86620593071,0.5,4.7,1,0.1,,,2016_May_04_1307,59.8826989521,Peak_procedure,002,DMF,
8,0,8,0,None,,,,,,,,,0,0,0,0,,,,,,,,,,9,1,False,3.03332996368,0.5,4.7,1,0.1,,,2016_May_04_1307,59.8826989521,Peak_procedure,002,DMF,
8,0,8,0,None,,,,,,,,,0,0,0,0,,,,,,,,,,,,,,,,,,,,2016_May_04_1307,59.8826989521,Peak_procedure,002,DMF,
8,0,8,0,None,,,,,,,,,,,,,,,,,,,,,,,,,,,,,,,,2016_May_04_1307,59.8826989521,Peak_procedure,002,DMF,
9,0,9,0,None,0,0,0,0,,,,,,,,,,,,,None,,,"['space', 'space', 'space', 'space', 'space', 'space', 'space']","[0.00024700164794921875, 2.2483389377593994, 2.432003974914551, 2.632812976837158, 2.816127061843872, 2.9846489429473877, 3.180838108062744]",,,,,,,,,,,2016_May_04_1307,59.8826989521,Peak_procedure,002,DMF,
9,0,9,0,None,,,,,,,,,0,0,0,0,,,,,,,,,,10,1,False,0.000247001647949,0.4,5.1,1,0.1,,,2016_May_04_1307,59.8826989521,Peak_procedure,002,DMF,
9,0,9,0,None,,,,,,,,,0,0,0,0,,,,,,,,,,10,1,False,2.24833893776,0.4,5.1,1,0.1,,,2016_May_04_1307,59.8826989521,Peak_procedure,002,DMF,
9,0,9,0,None,,,,,,,,,0,0,0,0,,,,,,,,,,10,1,False,2.43200397491,0.4,5.1,1,0.1,,,2016_May_04_1307,59.8826989521,Peak_procedure,002,DMF,
9,0,9,0,None,,,,,,,,,0,0,0,0,,,,,,,,,,10,1,False,2.63281297684,0.4,5.1,1,0.1,,,2016_May_04_1307,59.8826989521,Peak_procedure,002,DMF,
9,0,9,0,None,,,,,,,,,0,0,0,0,,,,,,,,,,10,1,False,2.81612706184,0.4,5.1,1,0.1,,,2016_May_04_1307,59.8826989521,Peak_procedure,002,DMF,
9,0,9,0,None,,,,,,,,,0,0,0,0,,,,,,,,,,10,1,False,2.98464894295,0.4,5.1,1,0.1,,,2016_May_04_1307,59.8826989521,Peak_procedure,002,DMF,
9,0,9,0,None,,,,,,,,,0,0,0,0,,,,,,,,,,10,1,False,3.18083810806,0.4,5.1,1,0.1,,,2016_May_04_1307,59.8826989521,Peak_procedure,002,DMF,
9,0,9,0,None,,,,,,,,,0,0,0,0,,,,,,,,,,,,,,,,,,,,2016_May_04_1307,59.8826989521,Peak_procedure,002,DMF,
9,0,9,0,None,,,,,,,,,,,,,,,,,,,,,,,,,,,,,,,,2016_May_04_1307,59.8826989521,Peak_procedure,002,DMF,
10,0,10,0,None,0,0,0,0,,,,,,,,,,,,,None,,,"['space', 'space', 'space', 'space']","[2.554647922515869, 2.771536111831665, 2.955393075942993, 3.172553062438965]",,,,,,,,,,,2016_May_04_1307,59.8826989521,Peak_procedure,002,DMF,
10,0,10,0,None,,,,,,,,,0,0,0,0,,,,,,,,,,11,1,False,2.55464792252,0.7,5.8,1,0.1,,,2016_May_04_1307,59.8826989521,Peak_procedure,002,DMF,
10,0,10,0,None,,,,,,,,,0,0,0,0,,,,,,,,,,11,1,False,2.77153611183,0.7,5.8,1,0.1,,,2016_May_04_1307,59.8826989521,Peak_procedure,002,DMF,
10,0,10,0,None,,,,,,,,,0,0,0,0,,,,,,,,,,11,1,False,2.95539307594,0.7,5.8,1,0.1,,,2016_May_04_1307,59.8826989521,Peak_procedure,002,DMF,
10,0,10,0,None,,,,,,,,,0,0,0,0,,,,,,,,,,11,1,False,3.17255306244,0.7,5.8,1,0.1,,,2016_May_04_1307,59.8826989521,Peak_procedure,002,DMF,
10,0,10,0,None,,,,,,,,,0,0,0,0,,,,,,,,,,,,,,,,,,,,2016_May_04_1307,59.8826989521,Peak_procedure,002,DMF,
10,0,10,0,None,,,,,,,,,,,,,,,,,,,,,,,,,,,,,,,,2016_May_04_1307,59.8826989521,Peak_procedure,002,DMF,
11,0,11,0,None,0,0,0,0,,,,,,,,,,,,,None,,,"['space', 'space', 'space']","[0.00023508071899414062, 3.2569971084594727]",,,,,,,,,,,2016_May_04_1307,59.8826989521,Peak_procedure,002,DMF,
11,0,11,0,None,,,,,,,,,0,0,0,0,,,,,,,,,,12,1,False,0.000235080718994,0.9,6.7,1,0.1,,,2016_May_04_1307,59.8826989521,Peak_procedure,002,DMF,
11,0,11,0,None,,,,,,,,,0,0,0,0,,,,,,,,,,12,1,False,3.25699710846,0.9,6.7,1,0.1,,,2016_May_04_1307,59.8826989521,Peak_procedure,002,DMF,
11,0,11,0,None,,,,,,,,,0,0,0,0,,,,,,,,,,,,,,,,,,,,2016_May_04_1307,59.8826989521,Peak_procedure,002,DMF,
11,0,11,0,None,,,,,,,,,,,,,,,,,,,,,,,,,,,,,,,,2016_May_04_1307,59.8826989521,Peak_procedure,002,DMF,
12,0,12,0,None,0,0,0,0,,,,,,,,,,,,,None,,,"['space', 'space']","[0.000244140625, 3.0871551036834717]",,,,,,,,,,,2016_May_04_1307,59.8826989521,Peak_procedure,002,DMF,
12,0,12,0,None,,,,,,,,,0,0,0,0,,,,,,,,,,13,1,False,0.000244140625,0.9,7.6,1,0.1,,,2016_May_04_1307,59.8826989521,Peak_procedure,002,DMF,
12,0,12,0,None,,,,,,,,,0,0,0,0,,,,,,,,,,13,1,False,3.08715510368,0.9,7.6,1,0.1,,,2016_May_04_1307,59.8826989521,Peak_procedure,002,DMF,
12,0,12,0,None,,,,,,,,,0,0,0,0,,,,,,,,,,,,,,,,,,,,2016_May_04_1307,59.8826989521,Peak_procedure,002,DMF,
12,0,12,0,None,,,,,,,,,,,,,,,,,,,,,,,,,,,,,,,,2016_May_04_1307,59.8826989521,Peak_procedure,002,DMF,
13,0,13,0,None,0,0,0,0,,,,,,,,,,,,,None,,,"['space', 'space', 'space', 'space', 'space', 'space', 'space', 'space', 'space', 'space']","[0.00024890899658203125, 2.076866865158081, 2.2933170795440674, 2.444058895111084, 2.610399007797241, 2.7453739643096924, 2.9622480869293213, 3.1281678676605225]",,,,,,,,,,,2016_May_04_1307,59.8826989521,Peak_procedure,002,DMF,
13,0,13,0,None,,,,,,,,,0,0,0,0,,,,,,,,,,14,1,False,0.000248908996582,0.3,7.9,1,0.1,,,2016_May_04_1307,59.8826989521,Peak_procedure,002,DMF,
13,0,13,0,None,,,,,,,,,0,0,0,0,,,,,,,,,,14,1,False,2.07686686516,0.3,7.9,1,0.1,,,2016_May_04_1307,59.8826989521,Peak_procedure,002,DMF,
13,0,13,0,None,,,,,,,,,0,0,0,0,,,,,,,,,,14,1,False,2.29331707954,0.3,7.9,1,0.1,,,2016_May_04_1307,59.8826989521,Peak_procedure,002,DMF,
13,0,13,0,None,,,,,,,,,0,0,0,0,,,,,,,,,,14,1,False,2.44405889511,0.3,7.9,1,0.1,,,2016_May_04_1307,59.8826989521,Peak_procedure,002,DMF,
13,0,13,0,None,,,,,,,,,0,0,0,0,,,,,,,,,,14,1,False,2.6103990078,0.3,7.9,1,0.1,,,2016_May_04_1307,59.8826989521,Peak_procedure,002,DMF,
13,0,13,0,None,,,,,,,,,0,0,0,0,,,,,,,,,,14,1,False,2.74537396431,0.3,7.9,1,0.1,,,2016_May_04_1307,59.8826989521,Peak_procedure,002,DMF,
13,0,13,0,None,,,,,,,,,0,0,0,0,,,,,,,,,,14,1,False,2.96224808693,0.3,7.9,1,0.1,,,2016_May_04_1307,59.8826989521,Peak_procedure,002,DMF,
13,0,13,0,None,,,,,,,,,0,0,0,0,,,,,,,,,,14,1,False,3.12816786766,0.3,7.9,1,0.1,,,2016_May_04_1307,59.8826989521,Peak_procedure,002,DMF,
13,0,13,0,None,,,,,,,,,0,0,0,0,,,,,,,,,,,,,,,,,,,,2016_May_04_1307,59.8826989521,Peak_procedure,002,DMF,
13,0,13,0,None,,,,,,,,,,,,,,,,,,,,,,,,,,,,,,,,2016_May_04_1307,59.8826989521,Peak_procedure,002,DMF,
14,0,14,0,None,0,0,0,0,,,,,,,,,,,,,None,,,"['space', 'space']","[0.0002460479736328125, 3.0655970573425293]",,,,,,,,,,,2016_May_04_1307,59.8826989521,Peak_procedure,002,DMF,
14,0,14,0,None,,,,,,,,,0,0,0,0,,,,,,,,,,15,1,False,0.000246047973633,0.9,8.8,1,0.1,,,2016_May_04_1307,59.8826989521,Peak_procedure,002,DMF,
14,0,14,0,None,,,,,,,,,0,0,0,0,,,,,,,,,,15,1,False,3.06559705734,0.9,8.8,1,0.1,,,2016_May_04_1307,59.8826989521,Peak_procedure,002,DMF,
14,0,14,0,None,,,,,,,,,0,0,0,0,,,,,,,,,,,,,,,,,,,,2016_May_04_1307,59.8826989521,Peak_procedure,002,DMF,
14,0,14,0,None,,,,,,,,,,,,,,,,,,,,,,,,,,,,,,,,2016_May_04_1307,59.8826989521,Peak_procedure,002,DMF,
15,0,15,0,None,0,0,0,0,,,,,,,,,,,,,None,,,"['space', 'space', 'space', 'space', 'space', 'space', 'space', 'space', 'space', 'space']","[0.000244140625, 2.05936598777771, 2.2089920043945312, 2.376582145690918, 2.5443191528320312, 2.7101221084594727, 2.8782191276550293, 3.062062978744507]",,,,,,,,,,,2016_May_04_1307,59.8826989521,Peak_procedure,002,DMF,
15,0,15,0,None,,,,,,,,,0,0,0,0,,,,,,,,,,16,1,False,0.000244140625,0.3,9.1,1,0.1,,,2016_May_04_1307,59.8826989521,Peak_procedure,002,DMF,
15,0,15,0,None,,,,,,,,,0,0,0,0,,,,,,,,,,16,1,False,2.05936598778,0.3,9.1,1,0.1,,,2016_May_04_1307,59.8826989521,Peak_procedure,002,DMF,
15,0,15,0,None,,,,,,,,,0,0,0,0,,,,,,,,,,16,1,False,2.20899200439,0.3,9.1,1,0.1,,,2016_May_04_1307,59.8826989521,Peak_procedure,002,DMF,
15,0,15,0,None,,,,,,,,,0,0,0,0,,,,,,,,,,16,1,False,2.37658214569,0.3,9.1,1,0.1,,,2016_May_04_1307,59.8826989521,Peak_procedure,002,DMF,
15,0,15,0,None,,,,,,,,,0,0,0,0,,,,,,,,,,16,1,False,2.54431915283,0.3,9.1,1,0.1,,,2016_May_04_1307,59.8826989521,Peak_procedure,002,DMF,
15,0,15,0,None,,,,,,,,,0,0,0,0,,,,,,,,,,16,1,False,2.71012210846,0.3,9.1,1,0.1,,,2016_May_04_1307,59.8826989521,Peak_procedure,002,DMF,
15,0,15,0,None,,,,,,,,,0,0,0,0,,,,,,,,,,16,1,False,2.87821912766,0.3,9.1,1,0.1,,,2016_May_04_1307,59.8826989521,Peak_procedure,002,DMF,
15,0,15,0,None,,,,,,,,,0,0,0,0,,,,,,,,,,16,1,False,3.06206297874,0.3,9.1,1,0.1,,,2016_May_04_1307,59.8826989521,Peak_procedure,002,DMF,
15,0,15,0,None,,,,,,,,,0,0,0,0,,,,,,,,,,,,,,,,,,,,2016_May_04_1307,59.8826989521,Peak_procedure,002,DMF,
15,0,15,0,None,,,,,,,,,,,,,,,,,,,,,,,,,,,,,,,,2016_May_04_1307,59.8826989521,Peak_procedure,002,DMF,
16,0,16,0,None,0,0,0,0,,,,,,,,,,,,,None,,,"['space', 'space', 'space', 'space', 'space', 'space', 'space', 'space']","[0.00024890899658203125, 2.2026009559631348, 2.3864800930023193, 2.55401611328125, 2.7197980880737305, 2.8879480361938477, 3.0549190044403076]",,,,,,,,,,,2016_May_04_1307,59.8826989521,Peak_procedure,002,DMF,
16,0,16,0,None,,,,,,,,,0,0,0,0,,,,,,,,,,17,1,False,0.000248908996582,0.4,9.5,1,0.1,,,2016_May_04_1307,59.8826989521,Peak_procedure,002,DMF,
16,0,16,0,None,,,,,,,,,0,0,0,0,,,,,,,,,,17,1,False,2.20260095596,0.4,9.5,1,0.1,,,2016_May_04_1307,59.8826989521,Peak_procedure,002,DMF,
16,0,16,0,None,,,,,,,,,0,0,0,0,,,,,,,,,,17,1,False,2.386480093,0.4,9.5,1,0.1,,,2016_May_04_1307,59.8826989521,Peak_procedure,002,DMF,
16,0,16,0,None,,,,,,,,,0,0,0,0,,,,,,,,,,17,1,False,2.55401611328,0.4,9.5,1,0.1,,,2016_May_04_1307,59.8826989521,Peak_procedure,002,DMF,
16,0,16,0,None,,,,,,,,,0,0,0,0,,,,,,,,,,17,1,False,2.71979808807,0.4,9.5,1,0.1,,,2016_May_04_1307,59.8826989521,Peak_procedure,002,DMF,
16,0,16,0,None,,,,,,,,,0,0,0,0,,,,,,,,,,17,1,False,2.88794803619,0.4,9.5,1,0.1,,,2016_May_04_1307,59.8826989521,Peak_procedure,002,DMF,
16,0,16,0,None,,,,,,,,,0,0,0,0,,,,,,,,,,17,1,False,3.05491900444,0.4,9.5,1,0.1,,,2016_May_04_1307,59.8826989521,Peak_procedure,002,DMF,
16,0,16,0,None,,,,,,,,,0,0,0,0,,,,,,,,,,,,,,,,,,,,2016_May_04_1307,59.8826989521,Peak_procedure,002,DMF,
16,0,16,0,None,,,,,,,,,,,,,,,,,,,,,,,,,,,,,,,,2016_May_04_1307,59.8826989521,Peak_procedure,002,DMF,
17,0,17,0,None,0,0,0,0,,,,,,,,,,,,,None,,,"['space', 'space', 'space', 'space', 'space', 'space', 'space', 'space']","[0.0003371238708496094, 2.1997530460357666, 2.383629083633423, 2.549610137939453, 2.7163150310516357, 2.884809970855713, 3.085024118423462]",,,,,,,,,,,2016_May_04_1307,59.8826989521,Peak_procedure,002,DMF,
17,0,17,0,None,,,,,,,,,0,0,0,0,,,,,,,,,,18,1,False,0.00033712387085,0.4,9.9,1,0.1,,,2016_May_04_1307,59.8826989521,Peak_procedure,002,DMF,
17,0,17,0,None,,,,,,,,,0,0,0,0,,,,,,,,,,18,1,False,2.19975304604,0.4,9.9,1,0.1,,,2016_May_04_1307,59.8826989521,Peak_procedure,002,DMF,
17,0,17,0,None,,,,,,,,,0,0,0,0,,,,,,,,,,18,1,False,2.38362908363,0.4,9.9,1,0.1,,,2016_May_04_1307,59.8826989521,Peak_procedure,002,DMF,
17,0,17,0,None,,,,,,,,,0,0,0,0,,,,,,,,,,18,1,False,2.54961013794,0.4,9.9,1,0.1,,,2016_May_04_1307,59.8826989521,Peak_procedure,002,DMF,
17,0,17,0,None,,,,,,,,,0,0,0,0,,,,,,,,,,18,1,False,2.71631503105,0.4,9.9,1,0.1,,,2016_May_04_1307,59.8826989521,Peak_procedure,002,DMF,
17,0,17,0,None,,,,,,,,,0,0,0,0,,,,,,,,,,18,1,False,2.88480997086,0.4,9.9,1,0.1,,,2016_May_04_1307,59.8826989521,Peak_procedure,002,DMF,
17,0,17,0,None,,,,,,,,,0,0,0,0,,,,,,,,,,18,1,False,3.08502411842,0.4,9.9,1,0.1,,,2016_May_04_1307,59.8826989521,Peak_procedure,002,DMF,
17,0,17,0,None,,,,,,,,,0,0,0,0,,,,,,,,,,,,,,,,,,,,2016_May_04_1307,59.8826989521,Peak_procedure,002,DMF,
17,0,17,0,None,,,,,,,,,,,,,,,,,,,,,,,,,,,,,,,,2016_May_04_1307,59.8826989521,Peak_procedure,002,DMF,
18,0,18,0,None,0,0,0,0,,,,,,,,,,,,,None,,,"['space', 'space', 'space', 'space', 'space', 'space', 'space', 'space', 'space', 'space', 'space', 'space']","[0.00039005279541015625, 1.3992860317230225, 1.617199182510376, 1.783825159072876, 1.983916997909546, 2.150883197784424, 2.318603038787842, 2.502289056777954, 2.702998161315918, 2.8697509765625, 3.0535311698913574]",,,,,,,,,,,2016_May_04_1307,59.8826989521,Peak_procedure,002,DMF,
18,0,18,0,None,,,,,,,,,0,0,0,0,,,,,,,,,,19,1,False,0.00039005279541,1.11022302463e-16,9.9,1,0.1,,,2016_May_04_1307,59.8826989521,Peak_procedure,002,DMF,
18,0,18,0,None,,,,,,,,,0,0,0,0,,,,,,,,,,19,1,False,1.39928603172,1.11022302463e-16,9.9,1,0.1,,,2016_May_04_1307,59.8826989521,Peak_procedure,002,DMF,
18,0,18,0,None,,,,,,,,,0,0,0,0,,,,,,,,,,19,1,False,1.61719918251,1.11022302463e-16,9.9,1,0.1,,,2016_May_04_1307,59.8826989521,Peak_procedure,002,DMF,
18,0,18,0,None,,,,,,,,,0,0,0,0,,,,,,,,,,19,1,False,1.78382515907,1.11022302463e-16,9.9,1,0.1,,,2016_May_04_1307,59.8826989521,Peak_procedure,002,DMF,
18,0,18,0,None,,,,,,,,,0,0,0,0,,,,,,,,,,19,1,False,1.98391699791,1.11022302463e-16,9.9,1,0.1,,,2016_May_04_1307,59.8826989521,Peak_procedure,002,DMF,
18,0,18,0,None,,,,,,,,,0,0,0,0,,,,,,,,,,19,1,False,2.15088319778,1.11022302463e-16,9.9,1,0.1,,,2016_May_04_1307,59.8826989521,Peak_procedure,002,DMF,
18,0,18,0,None,,,,,,,,,0,0,0,0,,,,,,,,,,19,1,False,2.31860303879,1.11022302463e-16,9.9,1,0.1,,,2016_May_04_1307,59.8826989521,Peak_procedure,002,DMF,
18,0,18,0,None,,,,,,,,,0,0,0,0,,,,,,,,,,19,1,False,2.50228905678,1.11022302463e-16,9.9,1,0.1,,,2016_May_04_1307,59.8826989521,Peak_procedure,002,DMF,
18,0,18,0,None,,,,,,,,,0,0,0,0,,,,,,,,,,19,1,False,2.70299816132,1.11022302463e-16,9.9,1,0.1,,,2016_May_04_1307,59.8826989521,Peak_procedure,002,DMF,
18,0,18,0,None,,,,,,,,,0,0,0,0,,,,,,,,,,19,1,False,2.86975097656,1.11022302463e-16,9.9,1,0.1,,,2016_May_04_1307,59.8826989521,Peak_procedure,002,DMF,
18,0,18,0,None,,,,,,,,,0,0,0,0,,,,,,,,,,19,1,False,3.05353116989,1.11022302463e-16,9.9,1,0.1,,,2016_May_04_1307,59.8826989521,Peak_procedure,002,DMF,
18,0,18,0,None,,,,,,,,,0,0,0,0,,,,,,,,,,,,,,,,,,,,2016_May_04_1307,59.8826989521,Peak_procedure,002,DMF,
18,0,18,0,None,,,,,,,,,,,,,,,,,,,,,,,,,,,,,,,,2016_May_04_1307,59.8826989521,Peak_procedure,002,DMF,
19,0,19,0,None,0,0,0,0,,,,,,,,,,,,,None,,,"['space', 'space', 'space', 'space', 'space', 'space', 'space', 'space']","[0.0003380775451660156, 1.8481841087341309, 2.0808141231536865, 2.248682975769043, 2.449463129043579, 2.6330389976501465, 2.8503620624542236, 3.068355083465576]",,,,,,,,,,,2016_May_04_1307,59.8826989521,Peak_procedure,002,DMF,
19,0,19,0,None,,,,,,,,,0,0,0,0,,,,,,,,,,20,1,False,0.000338077545166,0.3,10.2,1,0.1,,,2016_May_04_1307,59.8826989521,Peak_procedure,002,DMF,
19,0,19,0,None,,,,,,,,,0,0,0,0,,,,,,,,,,20,1,False,1.84818410873,0.3,10.2,1,0.1,,,2016_May_04_1307,59.8826989521,Peak_procedure,002,DMF,
19,0,19,0,None,,,,,,,,,0,0,0,0,,,,,,,,,,20,1,False,2.08081412315,0.3,10.2,1,0.1,,,2016_May_04_1307,59.8826989521,Peak_procedure,002,DMF,
19,0,19,0,None,,,,,,,,,0,0,0,0,,,,,,,,,,20,1,False,2.24868297577,0.3,10.2,1,0.1,,,2016_May_04_1307,59.8826989521,Peak_procedure,002,DMF,
19,0,19,0,None,,,,,,,,,0,0,0,0,,,,,,,,,,20,1,False,2.44946312904,0.3,10.2,1,0.1,,,2016_May_04_1307,59.8826989521,Peak_procedure,002,DMF,
19,0,19,0,None,,,,,,,,,0,0,0,0,,,,,,,,,,20,1,False,2.63303899765,0.3,10.2,1,0.1,,,2016_May_04_1307,59.8826989521,Peak_procedure,002,DMF,
19,0,19,0,None,,,,,,,,,0,0,0,0,,,,,,,,,,20,1,False,2.85036206245,0.3,10.2,1,0.1,,,2016_May_04_1307,59.8826989521,Peak_procedure,002,DMF,
19,0,19,0,None,,,,,,,,,0,0,0,0,,,,,,,,,,20,1,False,3.06835508347,0.3,10.2,1,0.1,,,2016_May_04_1307,59.8826989521,Peak_procedure,002,DMF,
19,0,19,0,None,,,,,,,,,0,0,0,0,,,,,,,,,,,,,,,,,,,,2016_May_04_1307,59.8826989521,Peak_procedure,002,DMF,
19,0,19,0,None,,,,,,,,,,,,,,,,,,,,,,,,,,,,,,,,2016_May_04_1307,59.8826989521,Peak_procedure,002,DMF,
20,0,20,0,None,0,0,0,0,,,,,,,,,,,,,None,,,"['space', 'space', 'space', 'space', 'space']","[0.00024509429931640625, 2.5456490516662598, 2.7294089794158936, 2.9464991092681885, 3.146888017654419]",,,,,,,,,,,2016_May_04_1307,59.8826989521,Peak_procedure,002,DMF,
20,0,20,0,None,,,,,,,,,0,0,0,0,,,,,,,,,,21,1,False,0.000245094299316,0.6,10.8,1,0.1,,,2016_May_04_1307,59.8826989521,Peak_procedure,002,DMF,
20,0,20,0,None,,,,,,,,,0,0,0,0,,,,,,,,,,21,1,False,2.54564905167,0.6,10.8,1,0.1,,,2016_May_04_1307,59.8826989521,Peak_procedure,002,DMF,
20,0,20,0,None,,,,,,,,,0,0,0,0,,,,,,,,,,21,1,False,2.72940897942,0.6,10.8,1,0.1,,,2016_May_04_1307,59.8826989521,Peak_procedure,002,DMF,
20,0,20,0,None,,,,,,,,,0,0,0,0,,,,,,,,,,21,1,False,2.94649910927,0.6,10.8,1,0.1,,,2016_May_04_1307,59.8826989521,Peak_procedure,002,DMF,
20,0,20,0,None,,,,,,,,,0,0,0,0,,,,,,,,,,21,1,False,3.14688801765,0.6,10.8,1,0.1,,,2016_May_04_1307,59.8826989521,Peak_procedure,002,DMF,
20,0,20,0,None,,,,,,,,,0,0,0,0,,,,,,,,,,,,,,,,,,,,2016_May_04_1307,59.8826989521,Peak_procedure,002,DMF,
20,0,20,0,None,,,,,,,,,,,,,,,,,,,,,,,,,,,,,,,,2016_May_04_1307,59.8826989521,Peak_procedure,002,DMF,
21,0,21,0,None,0,0,0,0,,,,,,,,,,,,,None,,,"['space', 'space', 'space']","[0.0002510547637939453, 2.8158199787139893, 3.2338249683380127]",,,,,,,,,,,2016_May_04_1307,59.8826989521,Peak_procedure,002,DMF,
21,0,21,0,None,,,,,,,,,0,0,0,0,,,,,,,,,,22,1,False,0.000251054763794,0.8,11.6,1,0.1,,,2016_May_04_1307,59.8826989521,Peak_procedure,002,DMF,
21,0,21,0,None,,,,,,,,,0,0,0,0,,,,,,,,,,22,1,False,2.81581997871,0.8,11.6,1,0.1,,,2016_May_04_1307,59.8826989521,Peak_procedure,002,DMF,
21,0,21,0,None,,,,,,,,,0,0,0,0,,,,,,,,,,22,1,False,3.23382496834,0.8,11.6,1,0.1,,,2016_May_04_1307,59.8826989521,Peak_procedure,002,DMF,
21,0,21,0,None,,,,,,,,,0,0,0,0,,,,,,,,,,,,,,,,,,,,2016_May_04_1307,59.8826989521,Peak_procedure,002,DMF,
21,0,21,0,None,,,,,,,,,,,,,,,,,,,,,,,,,,,,,,,,2016_May_04_1307,59.8826989521,Peak_procedure,002,DMF,
22,0,22,0,None,0,0,0,0,,,,,,,,,,,,,None,,,"['space', 'space', 'space', 'space', 'space']","[0.00025200843811035156, 2.600358009338379, 2.784499168395996, 2.9521381855010986, 3.133690118789673]",,,,,,,,,,,2016_May_04_1307,59.8826989521,Peak_procedure,002,DMF,
22,0,22,0,None,,,,,,,,,0,0,0,0,,,,,,,,,,23,1,False,0.00025200843811,0.6,12.2,1,0.1,,,2016_May_04_1307,59.8826989521,Peak_procedure,002,DMF,
22,0,22,0,None,,,,,,,,,0,0,0,0,,,,,,,,,,23,1,False,2.60035800934,0.6,12.2,1,0.1,,,2016_May_04_1307,59.8826989521,Peak_procedure,002,DMF,
22,0,22,0,None,,,,,,,,,0,0,0,0,,,,,,,,,,23,1,False,2.7844991684,0.6,12.2,1,0.1,,,2016_May_04_1307,59.8826989521,Peak_procedure,002,DMF,
22,0,22,0,None,,,,,,,,,0,0,0,0,,,,,,,,,,23,1,False,2.9521381855,0.6,12.2,1,0.1,,,2016_May_04_1307,59.8826989521,Peak_procedure,002,DMF,
22,0,22,0,None,,,,,,,,,0,0,0,0,,,,,,,,,,23,1,False,3.13369011879,0.6,12.2,1,0.1,,,2016_May_04_1307,59.8826989521,Peak_procedure,002,DMF,
22,0,22,0,None,,,,,,,,,0,0,0,0,,,,,,,,,,,,,,,,,,,,2016_May_04_1307,59.8826989521,Peak_procedure,002,DMF,
22,0,22,0,None,,,,,,,,,,,,,,,,,,,,,,,,,,,,,,,,2016_May_04_1307,59.8826989521,Peak_procedure,002,DMF,
23,0,23,0,None,,,,,0,0,0,0,,,,,,,,,,,,,,,,,,,,,,"['space', 'space', 'space', 'space', 'space', 'space', 'space', 'space', 'space', 'space', 'space', 'space', 'space', 'space']","[0.0002779960632324219, 2.5729470252990723, 2.7392609119415283, 2.923542022705078, 3.0904629230499268, 3.308479070663452, 3.5075199604034424, 4.22605299949646, 4.728060960769653, 4.895370006561279, 5.344779014587402, 5.512033939361572, 5.663208961486816, 5.880590915679932]",2016_May_04_1307,59.8826989521,Peak_procedure,002,DMF,
23,0,23,0,None,,,,,,,,,0,0,0,0,,,,,,,,,,24,0,True,0.000277996063232,-1.4,10.8,1,0.1,,,2016_May_04_1307,59.8826989521,Peak_procedure,002,DMF,
23,0,23,0,None,,,,,,,,,0,0,0,0,,,,,,,,,,24,0,True,2.5729470253,-1.4,10.8,1,0.1,,,2016_May_04_1307,59.8826989521,Peak_procedure,002,DMF,
23,0,23,0,None,,,,,,,,,0,0,0,0,,,,,,,,,,24,0,True,2.73926091194,-1.4,10.8,1,0.1,,,2016_May_04_1307,59.8826989521,Peak_procedure,002,DMF,
23,0,23,0,None,,,,,,,,,0,0,0,0,,,,,,,,,,24,0,True,2.92354202271,-1.4,10.8,1,0.1,,,2016_May_04_1307,59.8826989521,Peak_procedure,002,DMF,
23,0,23,0,None,,,,,,,,,0,0,0,0,,,,,,,,,,24,0,True,3.09046292305,-1.4,10.8,1,0.1,,,2016_May_04_1307,59.8826989521,Peak_procedure,002,DMF,
23,0,23,0,None,,,,,,,,,0,0,0,0,,,,,,,,,,24,0,True,3.30847907066,-1.4,10.8,1,0.1,,,2016_May_04_1307,59.8826989521,Peak_procedure,002,DMF,
23,0,23,0,None,,,,,,,,,0,0,0,0,,,,,,,,,,24,0,True,3.5075199604,-1.4,10.8,1,0.1,,,2016_May_04_1307,59.8826989521,Peak_procedure,002,DMF,
23,0,23,0,None,,,,,,,,,0,0,0,0,,,,,,,,,,24,0,True,4.2260529995,-1.4,10.8,1,0.1,,,2016_May_04_1307,59.8826989521,Peak_procedure,002,DMF,
23,0,23,0,None,,,,,,,,,0,0,0,0,,,,,,,,,,24,0,True,4.72806096077,-1.4,10.8,1,0.1,,,2016_May_04_1307,59.8826989521,Peak_procedure,002,DMF,
23,0,23,0,None,,,,,,,,,0,0,0,0,,,,,,,,,,24,0,True,4.89537000656,-1.4,10.8,1,0.1,,,2016_May_04_1307,59.8826989521,Peak_procedure,002,DMF,
23,0,23,0,None,,,,,,,,,0,0,0,0,,,,,,,,,,24,0,True,5.34477901459,-1.4,10.8,1,0.1,,,2016_May_04_1307,59.8826989521,Peak_procedure,002,DMF,
23,0,23,0,None,,,,,,,,,0,0,0,0,,,,,,,,,,24,0,True,5.51203393936,-1.4,10.8,1,0.1,,,2016_May_04_1307,59.8826989521,Peak_procedure,002,DMF,
23,0,23,0,None,,,,,,,,,0,0,0,0,,,,,,,,,,24,0,True,5.66320896149,-1.4,10.8,1,0.1,,,2016_May_04_1307,59.8826989521,Peak_procedure,002,DMF,
23,0,23,0,None,,,,,,,,,0,0,0,0,,,,,,,,,,24,0,True,5.88059091568,-1.4,10.8,1,0.1,,,2016_May_04_1307,59.8826989521,Peak_procedure,002,DMF,
23,0,23,0,None,,,,,,,,,0,0,0,0,,,,,,,,,,,,,,,,,,,,2016_May_04_1307,59.8826989521,Peak_procedure,002,DMF,
23,0,23,0,None,,,,,,,,,,,,,,,,,,,,,,,,,,,,,,,,2016_May_04_1307,59.8826989521,Peak_procedure,002,DMF,
24,0,24,0,None,0,0,0,0,,,,,,,,,,,,,None,,,"['space', 'space', 'space', 'space', 'space', 'space', 'space']","[1.9522430896759033, 2.15197491645813, 2.2865419387817383, 2.4531970024108887, 2.6349079608917236, 2.8212320804595947, 3.004271984100342]",,,,,,,,,,,2016_May_04_1307,59.8826989521,Peak_procedure,002,DMF,
24,0,24,0,None,,,,,,,,,0,0,0,0,,,,,,,,,,25,1,False,1.95224308968,0.4,11.2,1,0.1,,,2016_May_04_1307,59.8826989521,Peak_procedure,002,DMF,
24,0,24,0,None,,,,,,,,,0,0,0,0,,,,,,,,,,25,1,False,2.15197491646,0.4,11.2,1,0.1,,,2016_May_04_1307,59.8826989521,Peak_procedure,002,DMF,
24,0,24,0,None,,,,,,,,,0,0,0,0,,,,,,,,,,25,1,False,2.28654193878,0.4,11.2,1,0.1,,,2016_May_04_1307,59.8826989521,Peak_procedure,002,DMF,
24,0,24,0,None,,,,,,,,,0,0,0,0,,,,,,,,,,25,1,False,2.45319700241,0.4,11.2,1,0.1,,,2016_May_04_1307,59.8826989521,Peak_procedure,002,DMF,
24,0,24,0,None,,,,,,,,,0,0,0,0,,,,,,,,,,25,1,False,2.63490796089,0.4,11.2,1,0.1,,,2016_May_04_1307,59.8826989521,Peak_procedure,002,DMF,
24,0,24,0,None,,,,,,,,,0,0,0,0,,,,,,,,,,25,1,False,2.82123208046,0.4,11.2,1,0.1,,,2016_May_04_1307,59.8826989521,Peak_procedure,002,DMF,
24,0,24,0,None,,,,,,,,,0,0,0,0,,,,,,,,,,25,1,False,3.0042719841,0.4,11.2,1,0.1,,,2016_May_04_1307,59.8826989521,Peak_procedure,002,DMF,
24,0,24,0,None,,,,,,,,,0,0,0,0,,,,,,,,,,,,,,,,,,,,2016_May_04_1307,59.8826989521,Peak_procedure,002,DMF,
24,0,24,0,None,,,,,,,,,,,,,,,,,,,,,,,,,,,,,,,,2016_May_04_1307,59.8826989521,Peak_procedure,002,DMF,
25,0,25,0,None,,,,,0,0,0,0,,,,,,,,,,,,,,,,,,,,,,"['space', 'space', 'space', 'space', 'space', 'space', 'space', 'space', 'space', 'space', 'space', 'space']","[4.469796180725098, 4.637291193008423, 4.786542177200317, 4.9547200202941895, 5.087330102920532, 5.269610166549683, 5.4059531688690186, 5.772521018981934, 5.906062126159668, 6.123678207397461, 6.340980052947998, 6.6750710010528564]",2016_May_04_1307,59.8826989521,Peak_procedure,002,DMF,
25,0,25,0,None,,,,,,,,,0,0,0,0,,,,,,,,,,26,0,True,4.46979618073,-1.2,10.0,1,0.1,,,2016_May_04_1307,59.8826989521,Peak_procedure,002,DMF,
25,0,25,0,None,,,,,,,,,0,0,0,0,,,,,,,,,,26,0,True,4.63729119301,-1.2,10.0,1,0.1,,,2016_May_04_1307,59.8826989521,Peak_procedure,002,DMF,
25,0,25,0,None,,,,,,,,,0,0,0,0,,,,,,,,,,26,0,True,4.7865421772,-1.2,10.0,1,0.1,,,2016_May_04_1307,59.8826989521,Peak_procedure,002,DMF,
25,0,25,0,None,,,,,,,,,0,0,0,0,,,,,,,,,,26,0,True,4.95472002029,-1.2,10.0,1,0.1,,,2016_May_04_1307,59.8826989521,Peak_procedure,002,DMF,
25,0,25,0,None,,,,,,,,,0,0,0,0,,,,,,,,,,26,0,True,5.08733010292,-1.2,10.0,1,0.1,,,2016_May_04_1307,59.8826989521,Peak_procedure,002,DMF,
25,0,25,0,None,,,,,,,,,0,0,0,0,,,,,,,,,,26,0,True,5.26961016655,-1.2,10.0,1,0.1,,,2016_May_04_1307,59.8826989521,Peak_procedure,002,DMF,
25,0,25,0,None,,,,,,,,,0,0,0,0,,,,,,,,,,26,0,True,5.40595316887,-1.2,10.0,1,0.1,,,2016_May_04_1307,59.8826989521,Peak_procedure,002,DMF,
25,0,25,0,None,,,,,,,,,0,0,0,0,,,,,,,,,,26,0,True,5.77252101898,-1.2,10.0,1,0.1,,,2016_May_04_1307,59.8826989521,Peak_procedure,002,DMF,
25,0,25,0,None,,,,,,,,,0,0,0,0,,,,,,,,,,26,0,True,5.90606212616,-1.2,10.0,1,0.1,,,2016_May_04_1307,59.8826989521,Peak_procedure,002,DMF,
25,0,25,0,None,,,,,,,,,0,0,0,0,,,,,,,,,,26,0,True,6.1236782074,-1.2,10.0,1,0.1,,,2016_May_04_1307,59.8826989521,Peak_procedure,002,DMF,
25,0,25,0,None,,,,,,,,,0,0,0,0,,,,,,,,,,26,0,True,6.34098005295,-1.2,10.0,1,0.1,,,2016_May_04_1307,59.8826989521,Peak_procedure,002,DMF,
25,0,25,0,None,,,,,,,,,0,0,0,0,,,,,,,,,,26,0,True,6.67507100105,-1.2,10.0,1,0.1,,,2016_May_04_1307,59.8826989521,Peak_procedure,002,DMF,
25,0,25,0,None,,,,,,,,,0,0,0,0,,,,,,,,,,,,,,,,,,,,2016_May_04_1307,59.8826989521,Peak_procedure,002,DMF,
25,0,25,0,None,,,,,,,,,,,,,,,,,,,,,,,,,,,,,,,,2016_May_04_1307,59.8826989521,Peak_procedure,002,DMF,
26,0,26,0,None,,,,,0,0,0,0,,,,,,,,,,,,,,,,,,,,,,"['space', 'space', 'space', 'space', 'space', 'space', 'space', 'space', 'space', 'space', 'space', 'space', 'space', 'space']","[2.365309000015259, 2.4992878437042236, 2.6659209728240967, 2.833230972290039, 2.983435869216919, 3.167508840560913, 3.5520708560943604, 3.718535900115967, 3.8702239990234375, 4.053119897842407, 5.069393873214722, 5.205760955810547, 7.3429319858551025, 7.561141014099121]",2016_May_04_1307,59.8826989521,Peak_procedure,002,DMF,
26,0,26,0,None,,,,,,,,,0,0,0,0,,,,,,,,,,27,0,True,2.36530900002,-1.4,8.6,1,0.1,,,2016_May_04_1307,59.8826989521,Peak_procedure,002,DMF,
26,0,26,0,None,,,,,,,,,0,0,0,0,,,,,,,,,,27,0,True,2.4992878437,-1.4,8.6,1,0.1,,,2016_May_04_1307,59.8826989521,Peak_procedure,002,DMF,
26,0,26,0,None,,,,,,,,,0,0,0,0,,,,,,,,,,27,0,True,2.66592097282,-1.4,8.6,1,0.1,,,2016_May_04_1307,59.8826989521,Peak_procedure,002,DMF,
26,0,26,0,None,,,,,,,,,0,0,0,0,,,,,,,,,,27,0,True,2.83323097229,-1.4,8.6,1,0.1,,,2016_May_04_1307,59.8826989521,Peak_procedure,002,DMF,
26,0,26,0,None,,,,,,,,,0,0,0,0,,,,,,,,,,27,0,True,2.98343586922,-1.4,8.6,1,0.1,,,2016_May_04_1307,59.8826989521,Peak_procedure,002,DMF,
26,0,26,0,None,,,,,,,,,0,0,0,0,,,,,,,,,,27,0,True,3.16750884056,-1.4,8.6,1,0.1,,,2016_May_04_1307,59.8826989521,Peak_procedure,002,DMF,
26,0,26,0,None,,,,,,,,,0,0,0,0,,,,,,,,,,27,0,True,3.55207085609,-1.4,8.6,1,0.1,,,2016_May_04_1307,59.8826989521,Peak_procedure,002,DMF,
26,0,26,0,None,,,,,,,,,0,0,0,0,,,,,,,,,,27,0,True,3.71853590012,-1.4,8.6,1,0.1,,,2016_May_04_1307,59.8826989521,Peak_procedure,002,DMF,
26,0,26,0,None,,,,,,,,,0,0,0,0,,,,,,,,,,27,0,True,3.87022399902,-1.4,8.6,1,0.1,,,2016_May_04_1307,59.8826989521,Peak_procedure,002,DMF,
26,0,26,0,None,,,,,,,,,0,0,0,0,,,,,,,,,,27,0,True,4.05311989784,-1.4,8.6,1,0.1,,,2016_May_04_1307,59.8826989521,Peak_procedure,002,DMF,
26,0,26,0,None,,,,,,,,,0,0,0,0,,,,,,,,,,27,0,True,5.06939387321,-1.4,8.6,1,0.1,,,2016_May_04_1307,59.8826989521,Peak_procedure,002,DMF,
26,0,26,0,None,,,,,,,,,0,0,0,0,,,,,,,,,,27,0,True,5.20576095581,-1.4,8.6,1,0.1,,,2016_May_04_1307,59.8826989521,Peak_procedure,002,DMF,
26,0,26,0,None,,,,,,,,,0,0,0,0,,,,,,,,,,27,0,True,7.34293198586,-1.4,8.6,1,0.1,,,2016_May_04_1307,59.8826989521,Peak_procedure,002,DMF,
26,0,26,0,None,,,,,,,,,0,0,0,0,,,,,,,,,,27,0,True,7.5611410141,-1.4,8.6,1,0.1,,,2016_May_04_1307,59.8826989521,Peak_procedure,002,DMF,
26,0,26,0,None,,,,,,,,,0,0,0,0,,,,,,,,,,,,,,,,,,,,2016_May_04_1307,59.8826989521,Peak_procedure,002,DMF,
26,0,26,0,None,,,,,,,,,,,,,,,,,,,,,,,,,,,,,,,,2016_May_04_1307,59.8826989521,Peak_procedure,002,DMF,
27,0,27,0,None,0,0,0,0,,,,,,,,,,,,,None,,,['space'],[3.525470018386841],,,,,,,,,,,2016_May_04_1307,59.8826989521,Peak_procedure,002,DMF,
27,0,27,0,None,,,,,,,,,0,0,0,0,,,,,,,,,,28,1,False,3.52547001839,1,9.6,1,0.1,,,2016_May_04_1307,59.8826989521,Peak_procedure,002,DMF,
27,0,27,0,None,,,,,,,,,0,0,0,0,,,,,,,,,,,,,,,,,,,,2016_May_04_1307,59.8826989521,Peak_procedure,002,DMF,
27,0,27,0,None,,,,,,,,,,,,,,,,,,,,,,,,,,,,,,,,2016_May_04_1307,59.8826989521,Peak_procedure,002,DMF,
28,0,28,0,None,,,,,0,0,0,0,,,,,,,,,,,,,,,,,,,,,,"['space', 'space', 'space', 'space', 'space', 'space', 'space', 'space', 'space', 'space', 'space', 'space', 'space', 'space', 'space', 'space']","[0.00026988983154296875, 3.9353299140930176, 4.152215957641602, 4.319555044174194, 4.486239910125732, 4.669641971588135, 4.836925029754639, 5.0044238567352295, 5.170212030410767, 5.339417934417725, 5.519562005996704, 5.656000852584839, 5.82328987121582, 5.989815950393677, 6.156327962875366, 6.306678056716919]",2016_May_04_1307,59.8826989521,Peak_procedure,002,DMF,
28,0,28,0,None,,,,,,,,,0,0,0,0,,,,,,,,,,29,0,True,0.000269889831543,-1.6,8.0,1,0.1,,,2016_May_04_1307,59.8826989521,Peak_procedure,002,DMF,
28,0,28,0,None,,,,,,,,,0,0,0,0,,,,,,,,,,29,0,True,3.93532991409,-1.6,8.0,1,0.1,,,2016_May_04_1307,59.8826989521,Peak_procedure,002,DMF,
28,0,28,0,None,,,,,,,,,0,0,0,0,,,,,,,,,,29,0,True,4.15221595764,-1.6,8.0,1,0.1,,,2016_May_04_1307,59.8826989521,Peak_procedure,002,DMF,
28,0,28,0,None,,,,,,,,,0,0,0,0,,,,,,,,,,29,0,True,4.31955504417,-1.6,8.0,1,0.1,,,2016_May_04_1307,59.8826989521,Peak_procedure,002,DMF,
28,0,28,0,None,,,,,,,,,0,0,0,0,,,,,,,,,,29,0,True,4.48623991013,-1.6,8.0,1,0.1,,,2016_May_04_1307,59.8826989521,Peak_procedure,002,DMF,
28,0,28,0,None,,,,,,,,,0,0,0,0,,,,,,,,,,29,0,True,4.66964197159,-1.6,8.0,1,0.1,,,2016_May_04_1307,59.8826989521,Peak_procedure,002,DMF,
28,0,28,0,None,,,,,,,,,0,0,0,0,,,,,,,,,,29,0,True,4.83692502975,-1.6,8.0,1,0.1,,,2016_May_04_1307,59.8826989521,Peak_procedure,002,DMF,
28,0,28,0,None,,,,,,,,,0,0,0,0,,,,,,,,,,29,0,True,5.00442385674,-1.6,8.0,1,0.1,,,2016_May_04_1307,59.8826989521,Peak_procedure,002,DMF,
28,0,28,0,None,,,,,,,,,0,0,0,0,,,,,,,,,,29,0,True,5.17021203041,-1.6,8.0,1,0.1,,,2016_May_04_1307,59.8826989521,Peak_procedure,002,DMF,
28,0,28,0,None,,,,,,,,,0,0,0,0,,,,,,,,,,29,0,True,5.33941793442,-1.6,8.0,1,0.1,,,2016_May_04_1307,59.8826989521,Peak_procedure,002,DMF,
28,0,28,0,None,,,,,,,,,0,0,0,0,,,,,,,,,,29,0,True,5.519562006,-1.6,8.0,1,0.1,,,2016_May_04_1307,59.8826989521,Peak_procedure,002,DMF,
28,0,28,0,None,,,,,,,,,0,0,0,0,,,,,,,,,,29,0,True,5.65600085258,-1.6,8.0,1,0.1,,,2016_May_04_1307,59.8826989521,Peak_procedure,002,DMF,
28,0,28,0,None,,,,,,,,,0,0,0,0,,,,,,,,,,29,0,True,5.82328987122,-1.6,8.0,1,0.1,,,2016_May_04_1307,59.8826989521,Peak_procedure,002,DMF,
28,0,28,0,None,,,,,,,,,0,0,0,0,,,,,,,,,,29,0,True,5.98981595039,-1.6,8.0,1,0.1,,,2016_May_04_1307,59.8826989521,Peak_procedure,002,DMF,
28,0,28,0,None,,,,,,,,,0,0,0,0,,,,,,,,,,29,0,True,6.15632796288,-1.6,8.0,1,0.1,,,2016_May_04_1307,59.8826989521,Peak_procedure,002,DMF,
28,0,28,0,None,,,,,,,,,0,0,0,0,,,,,,,,,,29,0,True,6.30667805672,-1.6,8.0,1,0.1,,,2016_May_04_1307,59.8826989521,Peak_procedure,002,DMF,
28,0,28,0,None,,,,,,,,,0,0,0,0,,,,,,,,,,,,,,,,,,,,2016_May_04_1307,59.8826989521,Peak_procedure,002,DMF,
28,0,28,0,None,,,,,,,,,,,,,,,,,,,,,,,,,,,,,,,,2016_May_04_1307,59.8826989521,Peak_procedure,002,DMF,
29,0,29,0,None,,,,,0,0,0,0,,,,,,,,,,,,,,,,,,,,,,"['space', 'space', 'space', 'space', 'space', 'space', 'space', 'space', 'space', 'space', 'space', 'space', 'space', 'space', 'space', 'space']","[2.660856008529663, 2.8285489082336426, 3.011368989944458, 3.1622538566589355, 3.3289108276367188, 3.4971299171447754, 3.664153814315796, 3.8309497833251953, 3.998095989227295, 4.164992809295654, 4.331321954727173, 4.498341798782349, 5.149242877960205, 5.317212820053101, 5.483832836151123, 5.651383876800537]",2016_May_04_1307,59.8826989521,Peak_procedure,002,DMF,
29,0,29,0,None,,,,,,,,,0,0,0,0,,,,,,,,,,30,0,True,2.66085600853,-1.6,6.4,1,0.1,,,2016_May_04_1307,59.8826989521,Peak_procedure,002,DMF,
29,0,29,0,None,,,,,,,,,0,0,0,0,,,,,,,,,,30,0,True,2.82854890823,-1.6,6.4,1,0.1,,,2016_May_04_1307,59.8826989521,Peak_procedure,002,DMF,
29,0,29,0,None,,,,,,,,,0,0,0,0,,,,,,,,,,30,0,True,3.01136898994,-1.6,6.4,1,0.1,,,2016_May_04_1307,59.8826989521,Peak_procedure,002,DMF,
29,0,29,0,None,,,,,,,,,0,0,0,0,,,,,,,,,,30,0,True,3.16225385666,-1.6,6.4,1,0.1,,,2016_May_04_1307,59.8826989521,Peak_procedure,002,DMF,
29,0,29,0,None,,,,,,,,,0,0,0,0,,,,,,,,,,30,0,True,3.32891082764,-1.6,6.4,1,0.1,,,2016_May_04_1307,59.8826989521,Peak_procedure,002,DMF,
29,0,29,0,None,,,,,,,,,0,0,0,0,,,,,,,,,,30,0,True,3.49712991714,-1.6,6.4,1,0.1,,,2016_May_04_1307,59.8826989521,Peak_procedure,002,DMF,
29,0,29,0,None,,,,,,,,,0,0,0,0,,,,,,,,,,30,0,True,3.66415381432,-1.6,6.4,1,0.1,,,2016_May_04_1307,59.8826989521,Peak_procedure,002,DMF,
29,0,29,0,None,,,,,,,,,0,0,0,0,,,,,,,,,,30,0,True,3.83094978333,-1.6,6.4,1,0.1,,,2016_May_04_1307,59.8826989521,Peak_procedure,002,DMF,
29,0,29,0,None,,,,,,,,,0,0,0,0,,,,,,,,,,30,0,True,3.99809598923,-1.6,6.4,1,0.1,,,2016_May_04_1307,59.8826989521,Peak_procedure,002,DMF,
29,0,29,0,None,,,,,,,,,0,0,0,0,,,,,,,,,,30,0,True,4.1649928093,-1.6,6.4,1,0.1,,,2016_May_04_1307,59.8826989521,Peak_procedure,002,DMF,
29,0,29,0,None,,,,,,,,,0,0,0,0,,,,,,,,,,30,0,True,4.33132195473,-1.6,6.4,1,0.1,,,2016_May_04_1307,59.8826989521,Peak_procedure,002,DMF,
29,0,29,0,None,,,,,,,,,0,0,0,0,,,,,,,,,,30,0,True,4.49834179878,-1.6,6.4,1,0.1,,,2016_May_04_1307,59.8826989521,Peak_procedure,002,DMF,
29,0,29,0,None,,,,,,,,,0,0,0,0,,,,,,,,,,30,0,True,5.14924287796,-1.6,6.4,1,0.1,,,2016_May_04_1307,59.8826989521,Peak_procedure,002,DMF,
29,0,29,0,None,,,,,,,,,0,0,0,0,,,,,,,,,,30,0,True,5.31721282005,-1.6,6.4,1,0.1,,,2016_May_04_1307,59.8826989521,Peak_procedure,002,DMF,
29,0,29,0,None,,,,,,,,,0,0,0,0,,,,,,,,,,30,0,True,5.48383283615,-1.6,6.4,1,0.1,,,2016_May_04_1307,59.8826989521,Peak_procedure,002,DMF,
29,0,29,0,None,,,,,,,,,0,0,0,0,,,,,,,,,,30,0,True,5.6513838768,-1.6,6.4,1,0.1,,,2016_May_04_1307,59.8826989521,Peak_procedure,002,DMF,
29,0,29,0,None,,,,,,,,,0,0,0,0,,,,,,,,,,,,,,,,,,,,2016_May_04_1307,59.8826989521,Peak_procedure,002,DMF,
29,0,29,0,None,,,,,,,,,,,,,,,,,,,,,,,,,,,,,,,,2016_May_04_1307,59.8826989521,Peak_procedure,002,DMF,
30,0,30,0,None,0,0,0,0,,,,,,,,,,,,,None,,,"['space', 'space', 'space', 'space', 'space']","[2.4129910469055176, 2.610682964324951, 2.777869939804077, 2.9449660778045654, 3.114518880844116]",,,,,,,,,,,2016_May_04_1307,59.8826989521,Peak_procedure,002,DMF,
30,0,30,0,None,,,,,,,,,0,0,0,0,,,,,,,,,,31,1,False,2.41299104691,0.6,7.0,1,0.1,,,2016_May_04_1307,59.8826989521,Peak_procedure,002,DMF,
30,0,30,0,None,,,,,,,,,0,0,0,0,,,,,,,,,,31,1,False,2.61068296432,0.6,7.0,1,0.1,,,2016_May_04_1307,59.8826989521,Peak_procedure,002,DMF,
30,0,30,0,None,,,,,,,,,0,0,0,0,,,,,,,,,,31,1,False,2.7778699398,0.6,7.0,1,0.1,,,2016_May_04_1307,59.8826989521,Peak_procedure,002,DMF,
30,0,30,0,None,,,,,,,,,0,0,0,0,,,,,,,,,,31,1,False,2.9449660778,0.6,7.0,1,0.1,,,2016_May_04_1307,59.8826989521,Peak_procedure,002,DMF,
30,0,30,0,None,,,,,,,,,0,0,0,0,,,,,,,,,,31,1,False,3.11451888084,0.6,7.0,1,0.1,,,2016_May_04_1307,59.8826989521,Peak_procedure,002,DMF,
30,0,30,0,None,,,,,,,,,0,0,0,0,,,,,,,,,,,,,,,,,,,,2016_May_04_1307,59.8826989521,Peak_procedure,002,DMF,
30,0,30,0,None,,,,,,,,,,,,,,,,,,,,,,,,,,,,,,,,2016_May_04_1307,59.8826989521,Peak_procedure,002,DMF,
31,0,31,0,None,,,,,0,0,0,0,,,,,,,,,,,,,,,,,,,,,,"['space', 'space', 'space', 'space', 'space', 'space', 'space', 'space', 'space', 'space', 'space', 'space', 'space', 'space']","[2.442317008972168, 2.6259310245513916, 2.7917850017547607, 2.9744720458984375, 3.140982151031494, 3.4943580627441406, 3.6611812114715576, 3.826977014541626, 3.9953510761260986, 4.195171117782593, 4.362367153167725, 4.52861213684082, 4.696927070617676, 4.863953113555908]",2016_May_04_1307,59.8826989521,Peak_procedure,002,DMF,
31,0,31,0,None,,,,,,,,,0,0,0,0,,,,,,,,,,32,0,True,2.44231700897,-1.4,5.6,1,0.1,,,2016_May_04_1307,59.8826989521,Peak_procedure,002,DMF,
31,0,31,0,None,,,,,,,,,0,0,0,0,,,,,,,,,,32,0,True,2.62593102455,-1.4,5.6,1,0.1,,,2016_May_04_1307,59.8826989521,Peak_procedure,002,DMF,
31,0,31,0,None,,,,,,,,,0,0,0,0,,,,,,,,,,32,0,True,2.79178500175,-1.4,5.6,1,0.1,,,2016_May_04_1307,59.8826989521,Peak_procedure,002,DMF,
31,0,31,0,None,,,,,,,,,0,0,0,0,,,,,,,,,,32,0,True,2.9744720459,-1.4,5.6,1,0.1,,,2016_May_04_1307,59.8826989521,Peak_procedure,002,DMF,
31,0,31,0,None,,,,,,,,,0,0,0,0,,,,,,,,,,32,0,True,3.14098215103,-1.4,5.6,1,0.1,,,2016_May_04_1307,59.8826989521,Peak_procedure,002,DMF,
31,0,31,0,None,,,,,,,,,0,0,0,0,,,,,,,,,,32,0,True,3.49435806274,-1.4,5.6,1,0.1,,,2016_May_04_1307,59.8826989521,Peak_procedure,002,DMF,
31,0,31,0,None,,,,,,,,,0,0,0,0,,,,,,,,,,32,0,True,3.66118121147,-1.4,5.6,1,0.1,,,2016_May_04_1307,59.8826989521,Peak_procedure,002,DMF,
31,0,31,0,None,,,,,,,,,0,0,0,0,,,,,,,,,,32,0,True,3.82697701454,-1.4,5.6,1,0.1,,,2016_May_04_1307,59.8826989521,Peak_procedure,002,DMF,
31,0,31,0,None,,,,,,,,,0,0,0,0,,,,,,,,,,32,0,True,3.99535107613,-1.4,5.6,1,0.1,,,2016_May_04_1307,59.8826989521,Peak_procedure,002,DMF,
31,0,31,0,None,,,,,,,,,0,0,0,0,,,,,,,,,,32,0,True,4.19517111778,-1.4,5.6,1,0.1,,,2016_May_04_1307,59.8826989521,Peak_procedure,002,DMF,
31,0,31,0,None,,,,,,,,,0,0,0,0,,,,,,,,,,32,0,True,4.36236715317,-1.4,5.6,1,0.1,,,2016_May_04_1307,59.8826989521,Peak_procedure,002,DMF,
31,0,31,0,None,,,,,,,,,0,0,0,0,,,,,,,,,,32,0,True,4.52861213684,-1.4,5.6,1,0.1,,,2016_May_04_1307,59.8826989521,Peak_procedure,002,DMF,
31,0,31,0,None,,,,,,,,,0,0,0,0,,,,,,,,,,32,0,True,4.69692707062,-1.4,5.6,1,0.1,,,2016_May_04_1307,59.8826989521,Peak_procedure,002,DMF,
31,0,31,0,None,,,,,,,,,0,0,0,0,,,,,,,,,,32,0,True,4.86395311356,-1.4,5.6,1,0.1,,,2016_May_04_1307,59.8826989521,Peak_procedure,002,DMF,
31,0,31,0,None,,,,,,,,,0,0,0,0,,,,,,,,,,,,,,,,,,,,2016_May_04_1307,59.8826989521,Peak_procedure,002,DMF,
31,0,31,0,None,,,,,,,,,,,,,,,,,,,,,,,,,,,,,,,,2016_May_04_1307,59.8826989521,Peak_procedure,002,DMF,
32,0,32,0,None,,,,,0,0,0,0,,,,,,,,,,,,,,,,,,,,,,"['space', 'space', 'space', 'space', 'space', 'space', 'space', 'space', 'space', 'space', 'space', 'space', 'space', 'space']","[1.6763408184051514, 1.8741428852081299, 2.043379783630371, 2.2584049701690674, 2.7126808166503906, 2.845524787902832, 2.995422840118408, 3.2128260135650635, 3.380167007446289, 3.547074794769287, 3.897378921508789, 4.047019958496094, 4.215289831161499, 4.482637882232666]",2016_May_04_1307,59.8826989521,Peak_procedure,002,DMF,
32,0,32,0,None,,,,,,,,,0,0,0,0,,,,,,,,,,33,0,True,1.67634081841,-1.4,4.2,1,0.1,,,2016_May_04_1307,59.8826989521,Peak_procedure,002,DMF,
32,0,32,0,None,,,,,,,,,0,0,0,0,,,,,,,,,,33,0,True,1.87414288521,-1.4,4.2,1,0.1,,,2016_May_04_1307,59.8826989521,Peak_procedure,002,DMF,
32,0,32,0,None,,,,,,,,,0,0,0,0,,,,,,,,,,33,0,True,2.04337978363,-1.4,4.2,1,0.1,,,2016_May_04_1307,59.8826989521,Peak_procedure,002,DMF,
32,0,32,0,None,,,,,,,,,0,0,0,0,,,,,,,,,,33,0,True,2.25840497017,-1.4,4.2,1,0.1,,,2016_May_04_1307,59.8826989521,Peak_procedure,002,DMF,
32,0,32,0,None,,,,,,,,,0,0,0,0,,,,,,,,,,33,0,True,2.71268081665,-1.4,4.2,1,0.1,,,2016_May_04_1307,59.8826989521,Peak_procedure,002,DMF,
32,0,32,0,None,,,,,,,,,0,0,0,0,,,,,,,,,,33,0,True,2.8455247879,-1.4,4.2,1,0.1,,,2016_May_04_1307,59.8826989521,Peak_procedure,002,DMF,
32,0,32,0,None,,,,,,,,,0,0,0,0,,,,,,,,,,33,0,True,2.99542284012,-1.4,4.2,1,0.1,,,2016_May_04_1307,59.8826989521,Peak_procedure,002,DMF,
32,0,32,0,None,,,,,,,,,0,0,0,0,,,,,,,,,,33,0,True,3.21282601357,-1.4,4.2,1,0.1,,,2016_May_04_1307,59.8826989521,Peak_procedure,002,DMF,
32,0,32,0,None,,,,,,,,,0,0,0,0,,,,,,,,,,33,0,True,3.38016700745,-1.4,4.2,1,0.1,,,2016_May_04_1307,59.8826989521,Peak_procedure,002,DMF,
32,0,32,0,None,,,,,,,,,0,0,0,0,,,,,,,,,,33,0,True,3.54707479477,-1.4,4.2,1,0.1,,,2016_May_04_1307,59.8826989521,Peak_procedure,002,DMF,
32,0,32,0,None,,,,,,,,,0,0,0,0,,,,,,,,,,33,0,True,3.89737892151,-1.4,4.2,1,0.1,,,2016_May_04_1307,59.8826989521,Peak_procedure,002,DMF,
32,0,32,0,None,,,,,,,,,0,0,0,0,,,,,,,,,,33,0,True,4.0470199585,-1.4,4.2,1,0.1,,,2016_May_04_1307,59.8826989521,Peak_procedure,002,DMF,
32,0,32,0,None,,,,,,,,,0,0,0,0,,,,,,,,,,33,0,True,4.21528983116,-1.4,4.2,1,0.1,,,2016_May_04_1307,59.8826989521,Peak_procedure,002,DMF,
32,0,32,0,None,,,,,,,,,0,0,0,0,,,,,,,,,,33,0,True,4.48263788223,-1.4,4.2,1,0.1,,,2016_May_04_1307,59.8826989521,Peak_procedure,002,DMF,
32,0,32,0,None,,,,,,,,,0,0,0,0,,,,,,,,,,,,,,,,,,,,2016_May_04_1307,59.8826989521,Peak_procedure,002,DMF,
32,0,32,0,None,,,,,,,,,,,,,,,,,,,,,,,,,,,,,,,,2016_May_04_1307,59.8826989521,Peak_procedure,002,DMF,
33,0,33,0,None,,,,,0,0,0,0,,,,,,,,,,,,,,,,,,,,,,"['space', 'space', 'space', 'space', 'space', 'space', 'space', 'space', 'space', 'space', 'space', 'space', 'space', 'space', 'space']","[2.251481056213379, 2.4373810291290283, 2.6050000190734863, 2.7708230018615723, 2.9385039806365967, 3.1368370056152344, 3.490445137023926, 3.657210111618042, 3.823259115219116, 3.9900119304656982, 4.157922983169556, 4.608001947402954, 4.776457071304321, 4.942145109176636, 5.110222101211548]",2016_May_04_1307,59.8826989521,Peak_procedure,002,DMF,
33,0,33,0,None,,,,,,,,,0,0,0,0,,,,,,,,,,34,0,True,2.25148105621,-1.5,2.7,1,0.1,,,2016_May_04_1307,59.8826989521,Peak_procedure,002,DMF,
33,0,33,0,None,,,,,,,,,0,0,0,0,,,,,,,,,,34,0,True,2.43738102913,-1.5,2.7,1,0.1,,,2016_May_04_1307,59.8826989521,Peak_procedure,002,DMF,
33,0,33,0,None,,,,,,,,,0,0,0,0,,,,,,,,,,34,0,True,2.60500001907,-1.5,2.7,1,0.1,,,2016_May_04_1307,59.8826989521,Peak_procedure,002,DMF,
33,0,33,0,None,,,,,,,,,0,0,0,0,,,,,,,,,,34,0,True,2.77082300186,-1.5,2.7,1,0.1,,,2016_May_04_1307,59.8826989521,Peak_procedure,002,DMF,
33,0,33,0,None,,,,,,,,,0,0,0,0,,,,,,,,,,34,0,True,2.93850398064,-1.5,2.7,1,0.1,,,2016_May_04_1307,59.8826989521,Peak_procedure,002,DMF,
33,0,33,0,None,,,,,,,,,0,0,0,0,,,,,,,,,,34,0,True,3.13683700562,-1.5,2.7,1,0.1,,,2016_May_04_1307,59.8826989521,Peak_procedure,002,DMF,
33,0,33,0,None,,,,,,,,,0,0,0,0,,,,,,,,,,34,0,True,3.49044513702,-1.5,2.7,1,0.1,,,2016_May_04_1307,59.8826989521,Peak_procedure,002,DMF,
33,0,33,0,None,,,,,,,,,0,0,0,0,,,,,,,,,,34,0,True,3.65721011162,-1.5,2.7,1,0.1,,,2016_May_04_1307,59.8826989521,Peak_procedure,002,DMF,
33,0,33,0,None,,,,,,,,,0,0,0,0,,,,,,,,,,34,0,True,3.82325911522,-1.5,2.7,1,0.1,,,2016_May_04_1307,59.8826989521,Peak_procedure,002,DMF,
33,0,33,0,None,,,,,,,,,0,0,0,0,,,,,,,,,,34,0,True,3.99001193047,-1.5,2.7,1,0.1,,,2016_May_04_1307,59.8826989521,Peak_procedure,002,DMF,
33,0,33,0,None,,,,,,,,,0,0,0,0,,,,,,,,,,34,0,True,4.15792298317,-1.5,2.7,1,0.1,,,2016_May_04_1307,59.8826989521,Peak_procedure,002,DMF,
33,0,33,0,None,,,,,,,,,0,0,0,0,,,,,,,,,,34,0,True,4.6080019474,-1.5,2.7,1,0.1,,,2016_May_04_1307,59.8826989521,Peak_procedure,002,DMF,
33,0,33,0,None,,,,,,,,,0,0,0,0,,,,,,,,,,34,0,True,4.7764570713,-1.5,2.7,1,0.1,,,2016_May_04_1307,59.8826989521,Peak_procedure,002,DMF,
33,0,33,0,None,,,,,,,,,0,0,0,0,,,,,,,,,,34,0,True,4.94214510918,-1.5,2.7,1,0.1,,,2016_May_04_1307,59.8826989521,Peak_procedure,002,DMF,
33,0,33,0,None,,,,,,,,,0,0,0,0,,,,,,,,,,34,0,True,5.11022210121,-1.5,2.7,1,0.1,,,2016_May_04_1307,59.8826989521,Peak_procedure,002,DMF,
33,0,33,0,None,,,,,,,,,0,0,0,0,,,,,,,,,,,,,,,,,,,,2016_May_04_1307,59.8826989521,Peak_procedure,002,DMF,
33,0,33,0,None,,,,,,,,,,,,,,,,,,,,,,,,,,,,,,,,2016_May_04_1307,59.8826989521,Peak_procedure,002,DMF,
34,0,34,0,None,,,,,0,0,0,0,,,,,,,,,,,,,,,,,,,,,,"['space', 'space', 'space', 'space', 'space', 'space', 'space', 'space', 'space', 'space', 'space', 'space', 'space']","[4.164186000823975, 4.363892078399658, 4.511656045913696, 4.698111057281494, 5.032342195510864, 5.230002164840698, 5.39704704284668, 5.850581169128418, 6.0344531536102295, 6.234135150909424, 6.618843078613281, 6.784794092178345, 6.953033208847046]",2016_May_04_1307,59.8826989521,Peak_procedure,002,DMF,
34,0,34,0,None,,,,,,,,,0,0,0,0,,,,,,,,,,35,0,True,4.16418600082,-1.3,1.4,1,0.1,,,2016_May_04_1307,59.8826989521,Peak_procedure,002,DMF,
34,0,34,0,None,,,,,,,,,0,0,0,0,,,,,,,,,,35,0,True,4.3638920784,-1.3,1.4,1,0.1,,,2016_May_04_1307,59.8826989521,Peak_procedure,002,DMF,
34,0,34,0,None,,,,,,,,,0,0,0,0,,,,,,,,,,35,0,True,4.51165604591,-1.3,1.4,1,0.1,,,2016_May_04_1307,59.8826989521,Peak_procedure,002,DMF,
34,0,34,0,None,,,,,,,,,0,0,0,0,,,,,,,,,,35,0,True,4.69811105728,-1.3,1.4,1,0.1,,,2016_May_04_1307,59.8826989521,Peak_procedure,002,DMF,
34,0,34,0,None,,,,,,,,,0,0,0,0,,,,,,,,,,35,0,True,5.03234219551,-1.3,1.4,1,0.1,,,2016_May_04_1307,59.8826989521,Peak_procedure,002,DMF,
34,0,34,0,None,,,,,,,,,0,0,0,0,,,,,,,,,,35,0,True,5.23000216484,-1.3,1.4,1,0.1,,,2016_May_04_1307,59.8826989521,Peak_procedure,002,DMF,
34,0,34,0,None,,,,,,,,,0,0,0,0,,,,,,,,,,35,0,True,5.39704704285,-1.3,1.4,1,0.1,,,2016_May_04_1307,59.8826989521,Peak_procedure,002,DMF,
34,0,34,0,None,,,,,,,,,0,0,0,0,,,,,,,,,,35,0,True,5.85058116913,-1.3,1.4,1,0.1,,,2016_May_04_1307,59.8826989521,Peak_procedure,002,DMF,
34,0,34,0,None,,,,,,,,,0,0,0,0,,,,,,,,,,35,0,True,6.03445315361,-1.3,1.4,1,0.1,,,2016_May_04_1307,59.8826989521,Peak_procedure,002,DMF,
34,0,34,0,None,,,,,,,,,0,0,0,0,,,,,,,,,,35,0,True,6.23413515091,-1.3,1.4,1,0.1,,,2016_May_04_1307,59.8826989521,Peak_procedure,002,DMF,
34,0,34,0,None,,,,,,,,,0,0,0,0,,,,,,,,,,35,0,True,6.61884307861,-1.3,1.4,1,0.1,,,2016_May_04_1307,59.8826989521,Peak_procedure,002,DMF,
34,0,34,0,None,,,,,,,,,0,0,0,0,,,,,,,,,,35,0,True,6.78479409218,-1.3,1.4,1,0.1,,,2016_May_04_1307,59.8826989521,Peak_procedure,002,DMF,
34,0,34,0,None,,,,,,,,,0,0,0,0,,,,,,,,,,35,0,True,6.95303320885,-1.3,1.4,1,0.1,,,2016_May_04_1307,59.8826989521,Peak_procedure,002,DMF,
34,0,34,0,None,,,,,,,,,0,0,0,0,,,,,,,,,,,,,,,,,,,,2016_May_04_1307,59.8826989521,Peak_procedure,002,DMF,
34,0,34,0,None,,,,,,,,,,,,,,,,,,,,,,,,,,,,,,,,2016_May_04_1307,59.8826989521,Peak_procedure,002,DMF,
35,0,35,0,None,,,,,0,0,0,0,,,,,,,,,,,,,,,,,,,,,,"['space', 'space', 'space', 'space', 'space', 'space', 'space', 'space']","[3.410187005996704, 3.5926458835601807, 3.794018030166626, 3.9781038761138916, 5.396991968154907, 5.5813469886779785, 5.781858921051025, 5.948868036270142]",2016_May_04_1307,59.8826989521,Peak_procedure,002,DMF,
35,0,35,0,None,,,,,,,,,0,0,0,0,,,,,,,,,,36,0,True,3.410187006,-0.8,0.6,1,0.1,,,2016_May_04_1307,59.8826989521,Peak_procedure,002,DMF,
35,0,35,0,None,,,,,,,,,0,0,0,0,,,,,,,,,,36,0,True,3.59264588356,-0.8,0.6,1,0.1,,,2016_May_04_1307,59.8826989521,Peak_procedure,002,DMF,
35,0,35,0,None,,,,,,,,,0,0,0,0,,,,,,,,,,36,0,True,3.79401803017,-0.8,0.6,1,0.1,,,2016_May_04_1307,59.8826989521,Peak_procedure,002,DMF,
35,0,35,0,None,,,,,,,,,0,0,0,0,,,,,,,,,,36,0,True,3.97810387611,-0.8,0.6,1,0.1,,,2016_May_04_1307,59.8826989521,Peak_procedure,002,DMF,
35,0,35,0,None,,,,,,,,,0,0,0,0,,,,,,,,,,36,0,True,5.39699196815,-0.8,0.6,1,0.1,,,2016_May_04_1307,59.8826989521,Peak_procedure,002,DMF,
35,0,35,0,None,,,,,,,,,0,0,0,0,,,,,,,,,,36,0,True,5.58134698868,-0.8,0.6,1,0.1,,,2016_May_04_1307,59.8826989521,Peak_procedure,002,DMF,
35,0,35,0,None,,,,,,,,,0,0,0,0,,,,,,,,,,36,0,True,5.78185892105,-0.8,0.6,1,0.1,,,2016_May_04_1307,59.8826989521,Peak_procedure,002,DMF,
35,0,35,0,None,,,,,,,,,0,0,0,0,,,,,,,,,,36,0,True,5.94886803627,-0.8,0.6,1,0.1,,,2016_May_04_1307,59.8826989521,Peak_procedure,002,DMF,
35,0,35,0,None,,,,,,,,,0,0,0,0,,,,,,,,,,,,,,,,,,,,2016_May_04_1307,59.8826989521,Peak_procedure,002,DMF,
35,0,35,0,None,,,,,,,,,,,,,,,,,,,,,,,,,,,,,,,,2016_May_04_1307,59.8826989521,Peak_procedure,002,DMF,
36,0,36,0,None,0,0,0,0,,,,,,,,,,,,,None,,,"['space', 'space']","[2.931558132171631, 3.1322169303894043]",,,,,,,,,,,2016_May_04_1307,59.8826989521,Peak_procedure,002,DMF,
36,0,36,0,None,,,,,,,,,0,0,0,0,,,,,,,,,,37,1,False,2.93155813217,0.9,1.5,1,0.1,,,2016_May_04_1307,59.8826989521,Peak_procedure,002,DMF,
36,0,36,0,None,,,,,,,,,0,0,0,0,,,,,,,,,,37,1,False,3.13221693039,0.9,1.5,1,0.1,,,2016_May_04_1307,59.8826989521,Peak_procedure,002,DMF,
36,0,36,0,None,,,,,,,,,0,0,0,0,,,,,,,,,,,,,,,,,,,,2016_May_04_1307,59.8826989521,Peak_procedure,002,DMF,
36,0,36,0,None,,,,,,,,,,,,,,,,,,,,,,,,,,,,,,,,2016_May_04_1307,59.8826989521,Peak_procedure,002,DMF,
