trials.thisRepN,trials.thisTrialN,trials.thisN,trials.thisIndex,trials.thisTrial,Fixed_Interval_Loop.thisRepN,Fixed_Interval_Loop.thisTrialN,Fixed_Interval_Loop.thisN,Fixed_Interval_Loop.thisIndex,Peak_Interval_Loop.thisRepN,Peak_Interval_Loop.thisTrialN,Peak_Interval_Loop.thisN,Peak_Interval_Loop.thisIndex,feedback_Loop.thisRepN,feedback_Loop.thisTrialN,feedback_Loop.thisN,feedback_Loop.thisIndex,Break_Loop.thisRepN,Break_Loop.thisTrialN,Break_Loop.thisN,Break_Loop.thisIndex,Fixed_Interval_Loop.thisTrial,instructions_key.keys,instructions_key.rt,fixed_response.keys,fixed_response.rt,trial_number,is_fi_trial,is_pi_trial,response_time,score,total_score,reward,cost,peak_response.keys,peak_response.rt,date,frameRate,expName,session,participant,
,,,,,,,,,,,,,,,,,,,,,,space,3.97497391701,,,,,,,,,,,,,2016_May_04_1257,59.8530467331,Peak_procedure,001,DMF,
0,0,0,0,None,0,0,0,0,,,,,,,,,,,,,None,,,['space'],[4.634059906005859],,,,,,,,,,,2016_May_04_1257,59.8530467331,Peak_procedure,001,DMF,
0,0,0,0,None,,,,,,,,,0,0,0,0,,,,,,,,,,1,1,False,4.63405990601,1,1,1,0.1,,,2016_May_04_1257,59.8530467331,Peak_procedure,001,DMF,
0,0,0,0,None,,,,,,,,,0,0,0,0,,,,,,,,,,,,,,,,,,,,2016_May_04_1257,59.8530467331,Peak_procedure,001,DMF,
0,0,0,0,None,,,,,,,,,,,,,,,,,,,,,,,,,,,,,,,,2016_May_04_1257,59.8530467331,Peak_procedure,001,DMF,
1,0,1,0,None,0,0,0,0,,,,,,,,,,,,,None,,,"['space', 'space', 'space', 'space', 'space', 'space', 'space', 'space']","[0.00025010108947753906, 0.9376120567321777, 1.4386961460113525, 2.474379062652588, 2.689674139022827, 2.856729030609131, 2.9920871257781982, 3.710357189178467]",,,,,,,,,,,2016_May_04_1257,59.8530467331,Peak_procedure,001,DMF,
1,0,1,0,None,,,,,,,,,0,0,0,0,,,,,,,,,,2,1,False,0.000250101089478,0.3,1.3,1,0.1,,,2016_May_04_1257,59.8530467331,Peak_procedure,001,DMF,
1,0,1,0,None,,,,,,,,,0,0,0,0,,,,,,,,,,2,1,False,0.937612056732,0.3,1.3,1,0.1,,,2016_May_04_1257,59.8530467331,Peak_procedure,001,DMF,
1,0,1,0,None,,,,,,,,,0,0,0,0,,,,,,,,,,2,1,False,1.43869614601,0.3,1.3,1,0.1,,,2016_May_04_1257,59.8530467331,Peak_procedure,001,DMF,
1,0,1,0,None,,,,,,,,,0,0,0,0,,,,,,,,,,2,1,False,2.47437906265,0.3,1.3,1,0.1,,,2016_May_04_1257,59.8530467331,Peak_procedure,001,DMF,
1,0,1,0,None,,,,,,,,,0,0,0,0,,,,,,,,,,2,1,False,2.68967413902,0.3,1.3,1,0.1,,,2016_May_04_1257,59.8530467331,Peak_procedure,001,DMF,
1,0,1,0,None,,,,,,,,,0,0,0,0,,,,,,,,,,2,1,False,2.85672903061,0.3,1.3,1,0.1,,,2016_May_04_1257,59.8530467331,Peak_procedure,001,DMF,
1,0,1,0,None,,,,,,,,,0,0,0,0,,,,,,,,,,2,1,False,2.99208712578,0.3,1.3,1,0.1,,,2016_May_04_1257,59.8530467331,Peak_procedure,001,DMF,
1,0,1,0,None,,,,,,,,,0,0,0,0,,,,,,,,,,2,1,False,3.71035718918,0.3,1.3,1,0.1,,,2016_May_04_1257,59.8530467331,Peak_procedure,001,DMF,
1,0,1,0,None,,,,,,,,,0,0,0,0,,,,,,,,,,,,,,,,,,,,2016_May_04_1257,59.8530467331,Peak_procedure,001,DMF,
1,0,1,0,None,,,,,,,,,,,,,,,,,,,,,,,,,,,,,,,,2016_May_04_1257,59.8530467331,Peak_procedure,001,DMF,
2,0,2,0,None,0,0,0,0,,,,,,,,,,,,,None,,,"['space', 'space', 'space', 'space', 'space', 'space', 'space']","[1.1623528003692627, 1.362968921661377, 1.4964158535003662, 1.947464942932129, 2.114269971847534, 2.281341791152954, 3.2668509483337402]",,,,,,,,,,,2016_May_04_1257,59.8530467331,Peak_procedure,001,DMF,
2,0,2,0,None,,,,,,,,,0,0,0,0,,,,,,,,,,3,1,False,1.16235280037,0.4,1.7,1,0.1,,,2016_May_04_1257,59.8530467331,Peak_procedure,001,DMF,
2,0,2,0,None,,,,,,,,,0,0,0,0,,,,,,,,,,3,1,False,1.36296892166,0.4,1.7,1,0.1,,,2016_May_04_1257,59.8530467331,Peak_procedure,001,DMF,
2,0,2,0,None,,,,,,,,,0,0,0,0,,,,,,,,,,3,1,False,1.4964158535,0.4,1.7,1,0.1,,,2016_May_04_1257,59.8530467331,Peak_procedure,001,DMF,
2,0,2,0,None,,,,,,,,,0,0,0,0,,,,,,,,,,3,1,False,1.94746494293,0.4,1.7,1,0.1,,,2016_May_04_1257,59.8530467331,Peak_procedure,001,DMF,
2,0,2,0,None,,,,,,,,,0,0,0,0,,,,,,,,,,3,1,False,2.11426997185,0.4,1.7,1,0.1,,,2016_May_04_1257,59.8530467331,Peak_procedure,001,DMF,
2,0,2,0,None,,,,,,,,,0,0,0,0,,,,,,,,,,3,1,False,2.28134179115,0.4,1.7,1,0.1,,,2016_May_04_1257,59.8530467331,Peak_procedure,001,DMF,
2,0,2,0,None,,,,,,,,,0,0,0,0,,,,,,,,,,3,1,False,3.26685094833,0.4,1.7,1,0.1,,,2016_May_04_1257,59.8530467331,Peak_procedure,001,DMF,
2,0,2,0,None,,,,,,,,,0,0,0,0,,,,,,,,,,,,,,,,,,,,2016_May_04_1257,59.8530467331,Peak_procedure,001,DMF,
2,0,2,0,None,,,,,,,,,,,,,,,,,,,,,,,,,,,,,,,,2016_May_04_1257,59.8530467331,Peak_procedure,001,DMF,
3,0,3,0,None,0,0,0,0,,,,,,,,,,,,,None,,,"['space', 'space', 'space', 'space']","[1.4686520099639893, 2.0866589546203613, 2.2369039058685303, 3.4728050231933594]",,,,,,,,,,,2016_May_04_1257,59.8530467331,Peak_procedure,001,DMF,
3,0,3,0,None,,,,,,,,,0,0,0,0,,,,,,,,,,4,1,False,1.46865200996,0.7,2.4,1,0.1,,,2016_May_04_1257,59.8530467331,Peak_procedure,001,DMF,
3,0,3,0,None,,,,,,,,,0,0,0,0,,,,,,,,,,4,1,False,2.08665895462,0.7,2.4,1,0.1,,,2016_May_04_1257,59.8530467331,Peak_procedure,001,DMF,
3,0,3,0,None,,,,,,,,,0,0,0,0,,,,,,,,,,4,1,False,2.23690390587,0.7,2.4,1,0.1,,,2016_May_04_1257,59.8530467331,Peak_procedure,001,DMF,
3,0,3,0,None,,,,,,,,,0,0,0,0,,,,,,,,,,4,1,False,3.47280502319,0.7,2.4,1,0.1,,,2016_May_04_1257,59.8530467331,Peak_procedure,001,DMF,
3,0,3,0,None,,,,,,,,,0,0,0,0,,,,,,,,,,,,,,,,,,,,2016_May_04_1257,59.8530467331,Peak_procedure,001,DMF,
3,0,3,0,None,,,,,,,,,,,,,,,,,,,,,,,,,,,,,,,,2016_May_04_1257,59.8530467331,Peak_procedure,001,DMF,
4,0,4,0,None,0,0,0,0,,,,,,,,,,,,,None,,,"['space', 'space', 'space', 'space', 'space', 'space', 'space', 'space']","[0.00027179718017578125, 2.0223069190979004, 2.1559839248657227, 2.3063549995422363, 2.623619794845581, 2.8406789302825928, 3.191570997238159]",,,,,,,,,,,2016_May_04_1257,59.8530467331,Peak_procedure,001,DMF,
4,0,4,0,None,,,,,,,,,0,0,0,0,,,,,,,,,,5,1,False,0.000271797180176,0.4,2.8,1,0.1,,,2016_May_04_1257,59.8530467331,Peak_procedure,001,DMF,
4,0,4,0,None,,,,,,,,,0,0,0,0,,,,,,,,,,5,1,False,2.0223069191,0.4,2.8,1,0.1,,,2016_May_04_1257,59.8530467331,Peak_procedure,001,DMF,
4,0,4,0,None,,,,,,,,,0,0,0,0,,,,,,,,,,5,1,False,2.15598392487,0.4,2.8,1,0.1,,,2016_May_04_1257,59.8530467331,Peak_procedure,001,DMF,
4,0,4,0,None,,,,,,,,,0,0,0,0,,,,,,,,,,5,1,False,2.30635499954,0.4,2.8,1,0.1,,,2016_May_04_1257,59.8530467331,Peak_procedure,001,DMF,
4,0,4,0,None,,,,,,,,,0,0,0,0,,,,,,,,,,5,1,False,2.62361979485,0.4,2.8,1,0.1,,,2016_May_04_1257,59.8530467331,Peak_procedure,001,DMF,
4,0,4,0,None,,,,,,,,,0,0,0,0,,,,,,,,,,5,1,False,2.84067893028,0.4,2.8,1,0.1,,,2016_May_04_1257,59.8530467331,Peak_procedure,001,DMF,
4,0,4,0,None,,,,,,,,,0,0,0,0,,,,,,,,,,5,1,False,3.19157099724,0.4,2.8,1,0.1,,,2016_May_04_1257,59.8530467331,Peak_procedure,001,DMF,
4,0,4,0,None,,,,,,,,,0,0,0,0,,,,,,,,,,,,,,,,,,,,2016_May_04_1257,59.8530467331,Peak_procedure,001,DMF,
4,0,4,0,None,,,,,,,,,,,,,,,,,,,,,,,,,,,,,,,,2016_May_04_1257,59.8530467331,Peak_procedure,001,DMF,
5,0,5,0,None,0,0,0,0,,,,,,,,,,,,,None,,,"['space', 'space', 'space', 'space', 'space', 'space', 'space', 'space']","[0.00026917457580566406, 2.0546581745147705, 2.2217659950256348, 2.3703181743621826, 2.5389771461486816, 2.7061030864715576, 2.9215190410614014, 3.5411269664764404]",,,,,,,,,,,2016_May_04_1257,59.8530467331,Peak_procedure,001,DMF,
5,0,5,0,None,,,,,,,,,0,0,0,0,,,,,,,,,,6,1,False,0.000269174575806,0.3,3.1,1,0.1,,,2016_May_04_1257,59.8530467331,Peak_procedure,001,DMF,
5,0,5,0,None,,,,,,,,,0,0,0,0,,,,,,,,,,6,1,False,2.05465817451,0.3,3.1,1,0.1,,,2016_May_04_1257,59.8530467331,Peak_procedure,001,DMF,
5,0,5,0,None,,,,,,,,,0,0,0,0,,,,,,,,,,6,1,False,2.22176599503,0.3,3.1,1,0.1,,,2016_May_04_1257,59.8530467331,Peak_procedure,001,DMF,
5,0,5,0,None,,,,,,,,,0,0,0,0,,,,,,,,,,6,1,False,2.37031817436,0.3,3.1,1,0.1,,,2016_May_04_1257,59.8530467331,Peak_procedure,001,DMF,
5,0,5,0,None,,,,,,,,,0,0,0,0,,,,,,,,,,6,1,False,2.53897714615,0.3,3.1,1,0.1,,,2016_May_04_1257,59.8530467331,Peak_procedure,001,DMF,
5,0,5,0,None,,,,,,,,,0,0,0,0,,,,,,,,,,6,1,False,2.70610308647,0.3,3.1,1,0.1,,,2016_May_04_1257,59.8530467331,Peak_procedure,001,DMF,
5,0,5,0,None,,,,,,,,,0,0,0,0,,,,,,,,,,6,1,False,2.92151904106,0.3,3.1,1,0.1,,,2016_May_04_1257,59.8530467331,Peak_procedure,001,DMF,
5,0,5,0,None,,,,,,,,,0,0,0,0,,,,,,,,,,6,1,False,3.54112696648,0.3,3.1,1,0.1,,,2016_May_04_1257,59.8530467331,Peak_procedure,001,DMF,
5,0,5,0,None,,,,,,,,,0,0,0,0,,,,,,,,,,,,,,,,,,,,2016_May_04_1257,59.8530467331,Peak_procedure,001,DMF,
5,0,5,0,None,,,,,,,,,,,,,,,,,,,,,,,,,,,,,,,,2016_May_04_1257,59.8530467331,Peak_procedure,001,DMF,
6,0,6,0,None,0,0,0,0,,,,,,,,,,,,,None,,,"['space', 'space', 'space', 'space', 'space', 'space', 'space']","[0.00023603439331054688, 2.329585075378418, 2.479931116104126, 2.648292064666748, 2.7819771766662598, 2.9628071784973145, 3.532820224761963]",,,,,,,,,,,2016_May_04_1257,59.8530467331,Peak_procedure,001,DMF,
6,0,6,0,None,,,,,,,,,0,0,0,0,,,,,,,,,,7,1,False,0.000236034393311,0.4,3.5,1,0.1,,,2016_May_04_1257,59.8530467331,Peak_procedure,001,DMF,
6,0,6,0,None,,,,,,,,,0,0,0,0,,,,,,,,,,7,1,False,2.32958507538,0.4,3.5,1,0.1,,,2016_May_04_1257,59.8530467331,Peak_procedure,001,DMF,
6,0,6,0,None,,,,,,,,,0,0,0,0,,,,,,,,,,7,1,False,2.4799311161,0.4,3.5,1,0.1,,,2016_May_04_1257,59.8530467331,Peak_procedure,001,DMF,
6,0,6,0,None,,,,,,,,,0,0,0,0,,,,,,,,,,7,1,False,2.64829206467,0.4,3.5,1,0.1,,,2016_May_04_1257,59.8530467331,Peak_procedure,001,DMF,
6,0,6,0,None,,,,,,,,,0,0,0,0,,,,,,,,,,7,1,False,2.78197717667,0.4,3.5,1,0.1,,,2016_May_04_1257,59.8530467331,Peak_procedure,001,DMF,
6,0,6,0,None,,,,,,,,,0,0,0,0,,,,,,,,,,7,1,False,2.9628071785,0.4,3.5,1,0.1,,,2016_May_04_1257,59.8530467331,Peak_procedure,001,DMF,
6,0,6,0,None,,,,,,,,,0,0,0,0,,,,,,,,,,7,1,False,3.53282022476,0.4,3.5,1,0.1,,,2016_May_04_1257,59.8530467331,Peak_procedure,001,DMF,
6,0,6,0,None,,,,,,,,,0,0,0,0,,,,,,,,,,,,,,,,,,,,2016_May_04_1257,59.8530467331,Peak_procedure,001,DMF,
6,0,6,0,None,,,,,,,,,,,,,,,,,,,,,,,,,,,,,,,,2016_May_04_1257,59.8530467331,Peak_procedure,001,DMF,
7,0,7,0,None,0,0,0,0,,,,,,,,,,,,,None,,,"['space', 'space']","[0.0002391338348388672, 3.0831871032714844]",,,,,,,,,,,2016_May_04_1257,59.8530467331,Peak_procedure,001,DMF,
7,0,7,0,None,,,,,,,,,0,0,0,0,,,,,,,,,,8,1,False,0.000239133834839,0.9,4.4,1,0.1,,,2016_May_04_1257,59.8530467331,Peak_procedure,001,DMF,
7,0,7,0,None,,,,,,,,,0,0,0,0,,,,,,,,,,8,1,False,3.08318710327,0.9,4.4,1,0.1,,,2016_May_04_1257,59.8530467331,Peak_procedure,001,DMF,
7,0,7,0,None,,,,,,,,,0,0,0,0,,,,,,,,,,,,,,,,,,,,2016_May_04_1257,59.8530467331,Peak_procedure,001,DMF,
7,0,7,0,None,,,,,,,,,,,,,,,,,,,,,,,,,,,,,,,,2016_May_04_1257,59.8530467331,Peak_procedure,001,DMF,
8,0,8,0,None,0,0,0,0,,,,,,,,,,,,,None,,,"['space', 'space', 'space', 'space', 'space', 'space', 'space']","[0.0002701282501220703, 0.5261731147766113, 2.0450901985168457, 2.2303431034088135, 2.42757511138916, 2.7616660594940186, 3.1455202102661133]",,,,,,,,,,,2016_May_04_1257,59.8530467331,Peak_procedure,001,DMF,
8,0,8,0,None,,,,,,,,,0,0,0,0,,,,,,,,,,9,1,False,0.000270128250122,0.4,4.8,1,0.1,,,2016_May_04_1257,59.8530467331,Peak_procedure,001,DMF,
8,0,8,0,None,,,,,,,,,0,0,0,0,,,,,,,,,,9,1,False,0.526173114777,0.4,4.8,1,0.1,,,2016_May_04_1257,59.8530467331,Peak_procedure,001,DMF,
8,0,8,0,None,,,,,,,,,0,0,0,0,,,,,,,,,,9,1,False,2.04509019852,0.4,4.8,1,0.1,,,2016_May_04_1257,59.8530467331,Peak_procedure,001,DMF,
8,0,8,0,None,,,,,,,,,0,0,0,0,,,,,,,,,,9,1,False,2.23034310341,0.4,4.8,1,0.1,,,2016_May_04_1257,59.8530467331,Peak_procedure,001,DMF,
8,0,8,0,None,,,,,,,,,0,0,0,0,,,,,,,,,,9,1,False,2.42757511139,0.4,4.8,1,0.1,,,2016_May_04_1257,59.8530467331,Peak_procedure,001,DMF,
8,0,8,0,None,,,,,,,,,0,0,0,0,,,,,,,,,,9,1,False,2.76166605949,0.4,4.8,1,0.1,,,2016_May_04_1257,59.8530467331,Peak_procedure,001,DMF,
8,0,8,0,None,,,,,,,,,0,0,0,0,,,,,,,,,,9,1,False,3.14552021027,0.4,4.8,1,0.1,,,2016_May_04_1257,59.8530467331,Peak_procedure,001,DMF,
8,0,8,0,None,,,,,,,,,0,0,0,0,,,,,,,,,,,,,,,,,,,,2016_May_04_1257,59.8530467331,Peak_procedure,001,DMF,
8,0,8,0,None,,,,,,,,,,,,,,,,,,,,,,,,,,,,,,,,2016_May_04_1257,59.8530467331,Peak_procedure,001,DMF,
9,0,9,0,None,0,0,0,0,,,,,,,,,,,,,None,,,"['space', 'space']","[0.02537989616394043, 3.131700038909912]",,,,,,,,,,,2016_May_04_1257,59.8530467331,Peak_procedure,001,DMF,
9,0,9,0,None,,,,,,,,,0,0,0,0,,,,,,,,,,10,1,False,0.0253798961639,0.9,5.7,1,0.1,,,2016_May_04_1257,59.8530467331,Peak_procedure,001,DMF,
9,0,9,0,None,,,,,,,,,0,0,0,0,,,,,,,,,,10,1,False,3.13170003891,0.9,5.7,1,0.1,,,2016_May_04_1257,59.8530467331,Peak_procedure,001,DMF,
9,0,9,0,None,,,,,,,,,0,0,0,0,,,,,,,,,,,,,,,,,,,,2016_May_04_1257,59.8530467331,Peak_procedure,001,DMF,
9,0,9,0,None,,,,,,,,,,,,,,,,,,,,,,,,,,,,,,,,2016_May_04_1257,59.8530467331,Peak_procedure,001,DMF,
10,0,10,0,None,0,0,0,0,,,,,,,,,,,,,None,,,"['space', 'space', 'space', 'space']","[2.4377458095550537, 2.5716679096221924, 2.772722005844116, 3.0056159496307373]",,,,,,,,,,,2016_May_04_1257,59.8530467331,Peak_procedure,001,DMF,
10,0,10,0,None,,,,,,,,,0,0,0,0,,,,,,,,,,11,1,False,2.43774580956,0.7,6.4,1,0.1,,,2016_May_04_1257,59.8530467331,Peak_procedure,001,DMF,
10,0,10,0,None,,,,,,,,,0,0,0,0,,,,,,,,,,11,1,False,2.57166790962,0.7,6.4,1,0.1,,,2016_May_04_1257,59.8530467331,Peak_procedure,001,DMF,
10,0,10,0,None,,,,,,,,,0,0,0,0,,,,,,,,,,11,1,False,2.77272200584,0.7,6.4,1,0.1,,,2016_May_04_1257,59.8530467331,Peak_procedure,001,DMF,
10,0,10,0,None,,,,,,,,,0,0,0,0,,,,,,,,,,11,1,False,3.00561594963,0.7,6.4,1,0.1,,,2016_May_04_1257,59.8530467331,Peak_procedure,001,DMF,
10,0,10,0,None,,,,,,,,,0,0,0,0,,,,,,,,,,,,,,,,,,,,2016_May_04_1257,59.8530467331,Peak_procedure,001,DMF,
10,0,10,0,None,,,,,,,,,,,,,,,,,,,,,,,,,,,,,,,,2016_May_04_1257,59.8530467331,Peak_procedure,001,DMF,
11,0,11,0,None,0,0,0,0,,,,,,,,,,,,,None,,,['space'],[3.7348828315734863],,,,,,,,,,,2016_May_04_1257,59.8530467331,Peak_procedure,001,DMF,
11,0,11,0,None,,,,,,,,,0,0,0,0,,,,,,,,,,12,1,False,3.73488283157,1,7.4,1,0.1,,,2016_May_04_1257,59.8530467331,Peak_procedure,001,DMF,
11,0,11,0,None,,,,,,,,,0,0,0,0,,,,,,,,,,,,,,,,,,,,2016_May_04_1257,59.8530467331,Peak_procedure,001,DMF,
11,0,11,0,None,,,,,,,,,,,,,,,,,,,,,,,,,,,,,,,,2016_May_04_1257,59.8530467331,Peak_procedure,001,DMF,
12,0,12,0,None,0,0,0,0,,,,,,,,,,,,,None,,,"['space', 'space', 'space', 'space', 'space', 'space', 'space', 'space']","[0.0002429485321044922, 1.7535319328308105, 1.9203507900238037, 2.088028907775879, 2.25478196144104, 2.688344955444336, 2.8896758556365967, 3.29103684425354]",,,,,,,,,,,2016_May_04_1257,59.8530467331,Peak_procedure,001,DMF,
12,0,12,0,None,,,,,,,,,0,0,0,0,,,,,,,,,,13,1,False,0.000242948532104,0.3,7.7,1,0.1,,,2016_May_04_1257,59.8530467331,Peak_procedure,001,DMF,
12,0,12,0,None,,,,,,,,,0,0,0,0,,,,,,,,,,13,1,False,1.75353193283,0.3,7.7,1,0.1,,,2016_May_04_1257,59.8530467331,Peak_procedure,001,DMF,
12,0,12,0,None,,,,,,,,,0,0,0,0,,,,,,,,,,13,1,False,1.92035079002,0.3,7.7,1,0.1,,,2016_May_04_1257,59.8530467331,Peak_procedure,001,DMF,
12,0,12,0,None,,,,,,,,,0,0,0,0,,,,,,,,,,13,1,False,2.08802890778,0.3,7.7,1,0.1,,,2016_May_04_1257,59.8530467331,Peak_procedure,001,DMF,
12,0,12,0,None,,,,,,,,,0,0,0,0,,,,,,,,,,13,1,False,2.25478196144,0.3,7.7,1,0.1,,,2016_May_04_1257,59.8530467331,Peak_procedure,001,DMF,
12,0,12,0,None,,,,,,,,,0,0,0,0,,,,,,,,,,13,1,False,2.68834495544,0.3,7.7,1,0.1,,,2016_May_04_1257,59.8530467331,Peak_procedure,001,DMF,
12,0,12,0,None,,,,,,,,,0,0,0,0,,,,,,,,,,13,1,False,2.88967585564,0.3,7.7,1,0.1,,,2016_May_04_1257,59.8530467331,Peak_procedure,001,DMF,
12,0,12,0,None,,,,,,,,,0,0,0,0,,,,,,,,,,13,1,False,3.29103684425,0.3,7.7,1,0.1,,,2016_May_04_1257,59.8530467331,Peak_procedure,001,DMF,
12,0,12,0,None,,,,,,,,,0,0,0,0,,,,,,,,,,,,,,,,,,,,2016_May_04_1257,59.8530467331,Peak_procedure,001,DMF,
12,0,12,0,None,,,,,,,,,,,,,,,,,,,,,,,,,,,,,,,,2016_May_04_1257,59.8530467331,Peak_procedure,001,DMF,
13,0,13,0,None,0,0,0,0,,,,,,,,,,,,,None,,,"['space', 'space']","[1.7721450328826904, 3.041675090789795]",,,,,,,,,,,2016_May_04_1257,59.8530467331,Peak_procedure,001,DMF,
13,0,13,0,None,,,,,,,,,0,0,0,0,,,,,,,,,,14,1,False,1.77214503288,0.9,8.6,1,0.1,,,2016_May_04_1257,59.8530467331,Peak_procedure,001,DMF,
13,0,13,0,None,,,,,,,,,0,0,0,0,,,,,,,,,,14,1,False,3.04167509079,0.9,8.6,1,0.1,,,2016_May_04_1257,59.8530467331,Peak_procedure,001,DMF,
13,0,13,0,None,,,,,,,,,0,0,0,0,,,,,,,,,,,,,,,,,,,,2016_May_04_1257,59.8530467331,Peak_procedure,001,DMF,
13,0,13,0,None,,,,,,,,,,,,,,,,,,,,,,,,,,,,,,,,2016_May_04_1257,59.8530467331,Peak_procedure,001,DMF,
14,0,14,0,None,0,0,0,0,,,,,,,,,,,,,None,,,"['space', 'space', 'space', 'space', 'space', 'space']","[0.0002532005310058594, 2.844974994659424, 3.042613983154297]",,,,,,,,,,,2016_May_04_1257,59.8530467331,Peak_procedure,001,DMF,
14,0,14,0,None,,,,,,,,,0,0,0,0,,,,,,,,,,15,1,False,0.000253200531006,0.8,9.4,1,0.1,,,2016_May_04_1257,59.8530467331,Peak_procedure,001,DMF,
14,0,14,0,None,,,,,,,,,0,0,0,0,,,,,,,,,,15,1,False,2.84497499466,0.8,9.4,1,0.1,,,2016_May_04_1257,59.8530467331,Peak_procedure,001,DMF,
14,0,14,0,None,,,,,,,,,0,0,0,0,,,,,,,,,,15,1,False,3.04261398315,0.8,9.4,1,0.1,,,2016_May_04_1257,59.8530467331,Peak_procedure,001,DMF,
14,0,14,0,None,,,,,,,,,0,0,0,0,,,,,,,,,,,,,,,,,,,,2016_May_04_1257,59.8530467331,Peak_procedure,001,DMF,
14,0,14,0,None,,,,,,,,,,,,,,,,,,,,,,,,,,,,,,,,2016_May_04_1257,59.8530467331,Peak_procedure,001,DMF,
15,0,15,0,None,0,0,0,0,,,,,,,,,,,,,None,,,"['space', 'space', 'space', 'space']","[0.000244140625, 0.8663909435272217, 1.1018199920654297, 3.825269937515259]",,,,,,,,,,,2016_May_04_1257,59.8530467331,Peak_procedure,001,DMF,
15,0,15,0,None,,,,,,,,,0,0,0,0,,,,,,,,,,16,1,False,0.000244140625,0.7,10.1,1,0.1,,,2016_May_04_1257,59.8530467331,Peak_procedure,001,DMF,
15,0,15,0,None,,,,,,,,,0,0,0,0,,,,,,,,,,16,1,False,0.866390943527,0.7,10.1,1,0.1,,,2016_May_04_1257,59.8530467331,Peak_procedure,001,DMF,
15,0,15,0,None,,,,,,,,,0,0,0,0,,,,,,,,,,16,1,False,1.10181999207,0.7,10.1,1,0.1,,,2016_May_04_1257,59.8530467331,Peak_procedure,001,DMF,
15,0,15,0,None,,,,,,,,,0,0,0,0,,,,,,,,,,16,1,False,3.82526993752,0.7,10.1,1,0.1,,,2016_May_04_1257,59.8530467331,Peak_procedure,001,DMF,
15,0,15,0,None,,,,,,,,,0,0,0,0,,,,,,,,,,,,,,,,,,,,2016_May_04_1257,59.8530467331,Peak_procedure,001,DMF,
15,0,15,0,None,,,,,,,,,,,,,,,,,,,,,,,,,,,,,,,,2016_May_04_1257,59.8530467331,Peak_procedure,001,DMF,
16,0,16,0,None,0,0,0,0,,,,,,,,,,,,,None,,,"['space', 'space', 'space', 'space', 'space', 'space', 'space']","[0.00027108192443847656, 2.169844150543213, 2.320435047149658, 2.5182390213012695, 2.6879310607910156, 2.852293014526367, 3.022005081176758]",,,,,,,,,,,2016_May_04_1257,59.8530467331,Peak_procedure,001,DMF,
16,0,16,0,None,,,,,,,,,0,0,0,0,,,,,,,,,,17,1,False,0.000271081924438,0.4,10.5,1,0.1,,,2016_May_04_1257,59.8530467331,Peak_procedure,001,DMF,
16,0,16,0,None,,,,,,,,,0,0,0,0,,,,,,,,,,17,1,False,2.16984415054,0.4,10.5,1,0.1,,,2016_May_04_1257,59.8530467331,Peak_procedure,001,DMF,
16,0,16,0,None,,,,,,,,,0,0,0,0,,,,,,,,,,17,1,False,2.32043504715,0.4,10.5,1,0.1,,,2016_May_04_1257,59.8530467331,Peak_procedure,001,DMF,
16,0,16,0,None,,,,,,,,,0,0,0,0,,,,,,,,,,17,1,False,2.5182390213,0.4,10.5,1,0.1,,,2016_May_04_1257,59.8530467331,Peak_procedure,001,DMF,
16,0,16,0,None,,,,,,,,,0,0,0,0,,,,,,,,,,17,1,False,2.68793106079,0.4,10.5,1,0.1,,,2016_May_04_1257,59.8530467331,Peak_procedure,001,DMF,
16,0,16,0,None,,,,,,,,,0,0,0,0,,,,,,,,,,17,1,False,2.85229301453,0.4,10.5,1,0.1,,,2016_May_04_1257,59.8530467331,Peak_procedure,001,DMF,
16,0,16,0,None,,,,,,,,,0,0,0,0,,,,,,,,,,17,1,False,3.02200508118,0.4,10.5,1,0.1,,,2016_May_04_1257,59.8530467331,Peak_procedure,001,DMF,
16,0,16,0,None,,,,,,,,,0,0,0,0,,,,,,,,,,,,,,,,,,,,2016_May_04_1257,59.8530467331,Peak_procedure,001,DMF,
16,0,16,0,None,,,,,,,,,,,,,,,,,,,,,,,,,,,,,,,,2016_May_04_1257,59.8530467331,Peak_procedure,001,DMF,
17,0,17,0,None,0,0,0,0,,,,,,,,,,,,,None,,,"['space', 'space', 'space', 'space', 'space', 'space', 'space', 'space']","[0.00024890899658203125, 2.472770929336548, 2.670379877090454, 2.8399319648742676, 2.9727389812469482, 3.140523910522461]",,,,,,,,,,,2016_May_04_1257,59.8530467331,Peak_procedure,001,DMF,
17,0,17,0,None,,,,,,,,,0,0,0,0,,,,,,,,,,18,1,False,0.000248908996582,0.5,11.0,1,0.1,,,2016_May_04_1257,59.8530467331,Peak_procedure,001,DMF,
17,0,17,0,None,,,,,,,,,0,0,0,0,,,,,,,,,,18,1,False,2.47277092934,0.5,11.0,1,0.1,,,2016_May_04_1257,59.8530467331,Peak_procedure,001,DMF,
17,0,17,0,None,,,,,,,,,0,0,0,0,,,,,,,,,,18,1,False,2.67037987709,0.5,11.0,1,0.1,,,2016_May_04_1257,59.8530467331,Peak_procedure,001,DMF,
17,0,17,0,None,,,,,,,,,0,0,0,0,,,,,,,,,,18,1,False,2.83993196487,0.5,11.0,1,0.1,,,2016_May_04_1257,59.8530467331,Peak_procedure,001,DMF,
17,0,17,0,None,,,,,,,,,0,0,0,0,,,,,,,,,,18,1,False,2.97273898125,0.5,11.0,1,0.1,,,2016_May_04_1257,59.8530467331,Peak_procedure,001,DMF,
17,0,17,0,None,,,,,,,,,0,0,0,0,,,,,,,,,,18,1,False,3.14052391052,0.5,11.0,1,0.1,,,2016_May_04_1257,59.8530467331,Peak_procedure,001,DMF,
17,0,17,0,None,,,,,,,,,0,0,0,0,,,,,,,,,,,,,,,,,,,,2016_May_04_1257,59.8530467331,Peak_procedure,001,DMF,
17,0,17,0,None,,,,,,,,,,,,,,,,,,,,,,,,,,,,,,,,2016_May_04_1257,59.8530467331,Peak_procedure,001,DMF,
18,0,18,0,None,0,0,0,0,,,,,,,,,,,,,None,,,"['space', 'space']","[0.00024700164794921875, 3.1063880920410156]",,,,,,,,,,,2016_May_04_1257,59.8530467331,Peak_procedure,001,DMF,
18,0,18,0,None,,,,,,,,,0,0,0,0,,,,,,,,,,19,1,False,0.000247001647949,0.9,11.9,1,0.1,,,2016_May_04_1257,59.8530467331,Peak_procedure,001,DMF,
18,0,18,0,None,,,,,,,,,0,0,0,0,,,,,,,,,,19,1,False,3.10638809204,0.9,11.9,1,0.1,,,2016_May_04_1257,59.8530467331,Peak_procedure,001,DMF,
18,0,18,0,None,,,,,,,,,0,0,0,0,,,,,,,,,,,,,,,,,,,,2016_May_04_1257,59.8530467331,Peak_procedure,001,DMF,
18,0,18,0,None,,,,,,,,,,,,,,,,,,,,,,,,,,,,,,,,2016_May_04_1257,59.8530467331,Peak_procedure,001,DMF,
19,0,19,0,None,0,0,0,0,,,,,,,,,,,,,None,,,"['space', 'space', 'space', 'space', 'space', 'space', 'space', 'space', 'space', 'space', 'space', 'space', 'space']","[0.00024890899658203125, 1.546379804611206, 1.7161920070648193, 1.8999450206756592, 2.0501818656921387, 2.234138011932373, 2.4317538738250732, 2.6173558235168457, 2.7845449447631836, 3.5702178478240967]",,,,,,,,,,,2016_May_04_1257,59.8530467331,Peak_procedure,001,DMF,
19,0,19,0,None,,,,,,,,,0,0,0,0,,,,,,,,,,20,1,False,0.000248908996582,0.1,12.0,1,0.1,,,2016_May_04_1257,59.8530467331,Peak_procedure,001,DMF,
19,0,19,0,None,,,,,,,,,0,0,0,0,,,,,,,,,,20,1,False,1.54637980461,0.1,12.0,1,0.1,,,2016_May_04_1257,59.8530467331,Peak_procedure,001,DMF,
19,0,19,0,None,,,,,,,,,0,0,0,0,,,,,,,,,,20,1,False,1.71619200706,0.1,12.0,1,0.1,,,2016_May_04_1257,59.8530467331,Peak_procedure,001,DMF,
19,0,19,0,None,,,,,,,,,0,0,0,0,,,,,,,,,,20,1,False,1.89994502068,0.1,12.0,1,0.1,,,2016_May_04_1257,59.8530467331,Peak_procedure,001,DMF,
19,0,19,0,None,,,,,,,,,0,0,0,0,,,,,,,,,,20,1,False,2.05018186569,0.1,12.0,1,0.1,,,2016_May_04_1257,59.8530467331,Peak_procedure,001,DMF,
19,0,19,0,None,,,,,,,,,0,0,0,0,,,,,,,,,,20,1,False,2.23413801193,0.1,12.0,1,0.1,,,2016_May_04_1257,59.8530467331,Peak_procedure,001,DMF,
19,0,19,0,None,,,,,,,,,0,0,0,0,,,,,,,,,,20,1,False,2.43175387383,0.1,12.0,1,0.1,,,2016_May_04_1257,59.8530467331,Peak_procedure,001,DMF,
19,0,19,0,None,,,,,,,,,0,0,0,0,,,,,,,,,,20,1,False,2.61735582352,0.1,12.0,1,0.1,,,2016_May_04_1257,59.8530467331,Peak_procedure,001,DMF,
19,0,19,0,None,,,,,,,,,0,0,0,0,,,,,,,,,,20,1,False,2.78454494476,0.1,12.0,1,0.1,,,2016_May_04_1257,59.8530467331,Peak_procedure,001,DMF,
19,0,19,0,None,,,,,,,,,0,0,0,0,,,,,,,,,,20,1,False,3.57021784782,0.1,12.0,1,0.1,,,2016_May_04_1257,59.8530467331,Peak_procedure,001,DMF,
19,0,19,0,None,,,,,,,,,0,0,0,0,,,,,,,,,,,,,,,,,,,,2016_May_04_1257,59.8530467331,Peak_procedure,001,DMF,
19,0,19,0,None,,,,,,,,,,,,,,,,,,,,,,,,,,,,,,,,2016_May_04_1257,59.8530467331,Peak_procedure,001,DMF,
20,0,20,0,None,0,0,0,0,,,,,,,,,,,,,None,,,"['space', 'space', 'space', 'space', 'space', 'space', 'space', 'space']","[0.00025010108947753906, 2.120418071746826, 2.288041114807129, 2.4859631061553955, 2.655601978302002, 2.822641134262085, 3.540886163711548]",,,,,,,,,,,2016_May_04_1257,59.8530467331,Peak_procedure,001,DMF,
20,0,20,0,None,,,,,,,,,0,0,0,0,,,,,,,,,,21,1,False,0.000250101089478,0.4,12.4,1,0.1,,,2016_May_04_1257,59.8530467331,Peak_procedure,001,DMF,
20,0,20,0,None,,,,,,,,,0,0,0,0,,,,,,,,,,21,1,False,2.12041807175,0.4,12.4,1,0.1,,,2016_May_04_1257,59.8530467331,Peak_procedure,001,DMF,
20,0,20,0,None,,,,,,,,,0,0,0,0,,,,,,,,,,21,1,False,2.28804111481,0.4,12.4,1,0.1,,,2016_May_04_1257,59.8530467331,Peak_procedure,001,DMF,
20,0,20,0,None,,,,,,,,,0,0,0,0,,,,,,,,,,21,1,False,2.48596310616,0.4,12.4,1,0.1,,,2016_May_04_1257,59.8530467331,Peak_procedure,001,DMF,
20,0,20,0,None,,,,,,,,,0,0,0,0,,,,,,,,,,21,1,False,2.6556019783,0.4,12.4,1,0.1,,,2016_May_04_1257,59.8530467331,Peak_procedure,001,DMF,
20,0,20,0,None,,,,,,,,,0,0,0,0,,,,,,,,,,21,1,False,2.82264113426,0.4,12.4,1,0.1,,,2016_May_04_1257,59.8530467331,Peak_procedure,001,DMF,
20,0,20,0,None,,,,,,,,,0,0,0,0,,,,,,,,,,21,1,False,3.54088616371,0.4,12.4,1,0.1,,,2016_May_04_1257,59.8530467331,Peak_procedure,001,DMF,
20,0,20,0,None,,,,,,,,,0,0,0,0,,,,,,,,,,,,,,,,,,,,2016_May_04_1257,59.8530467331,Peak_procedure,001,DMF,
20,0,20,0,None,,,,,,,,,,,,,,,,,,,,,,,,,,,,,,,,2016_May_04_1257,59.8530467331,Peak_procedure,001,DMF,
21,0,21,0,None,0,0,0,0,,,,,,,,,,,,,None,,,"['space', 'space', 'space', 'space', 'space', 'space', 'space', 'space', 'space']","[0.00025010108947753906, 1.8059351444244385, 1.9723901748657227, 2.140000104904175, 2.3067290782928467, 2.472562074661255, 2.958513021469116, 3.1251611709594727]",,,,,,,,,,,2016_May_04_1257,59.8530467331,Peak_procedure,001,DMF,
21,0,21,0,None,,,,,,,,,0,0,0,0,,,,,,,,,,22,1,False,0.000250101089478,0.3,12.7,1,0.1,,,2016_May_04_1257,59.8530467331,Peak_procedure,001,DMF,
21,0,21,0,None,,,,,,,,,0,0,0,0,,,,,,,,,,22,1,False,1.80593514442,0.3,12.7,1,0.1,,,2016_May_04_1257,59.8530467331,Peak_procedure,001,DMF,
21,0,21,0,None,,,,,,,,,0,0,0,0,,,,,,,,,,22,1,False,1.97239017487,0.3,12.7,1,0.1,,,2016_May_04_1257,59.8530467331,Peak_procedure,001,DMF,
21,0,21,0,None,,,,,,,,,0,0,0,0,,,,,,,,,,22,1,False,2.1400001049,0.3,12.7,1,0.1,,,2016_May_04_1257,59.8530467331,Peak_procedure,001,DMF,
21,0,21,0,None,,,,,,,,,0,0,0,0,,,,,,,,,,22,1,False,2.30672907829,0.3,12.7,1,0.1,,,2016_May_04_1257,59.8530467331,Peak_procedure,001,DMF,
21,0,21,0,None,,,,,,,,,0,0,0,0,,,,,,,,,,22,1,False,2.47256207466,0.3,12.7,1,0.1,,,2016_May_04_1257,59.8530467331,Peak_procedure,001,DMF,
21,0,21,0,None,,,,,,,,,0,0,0,0,,,,,,,,,,22,1,False,2.95851302147,0.3,12.7,1,0.1,,,2016_May_04_1257,59.8530467331,Peak_procedure,001,DMF,
21,0,21,0,None,,,,,,,,,0,0,0,0,,,,,,,,,,22,1,False,3.12516117096,0.3,12.7,1,0.1,,,2016_May_04_1257,59.8530467331,Peak_procedure,001,DMF,
21,0,21,0,None,,,,,,,,,0,0,0,0,,,,,,,,,,,,,,,,,,,,2016_May_04_1257,59.8530467331,Peak_procedure,001,DMF,
21,0,21,0,None,,,,,,,,,,,,,,,,,,,,,,,,,,,,,,,,2016_May_04_1257,59.8530467331,Peak_procedure,001,DMF,
22,0,22,0,None,,,,,0,0,0,0,,,,,,,,,,,,,,,,,,,,,,"['space', 'space', 'space', 'space', 'space', 'space', 'space', 'space', 'space', 'space', 'space', 'space', 'space', 'space', 'space', 'space', 'space', 'space']","[0.0004329681396484375, 1.900312900543213, 2.066957950592041, 2.2332558631896973, 2.415480852127075, 2.5825040340423584, 2.7493319511413574, 3.5527260303497314, 3.7195639610290527, 3.887660026550293, 4.053714990615845, 4.873118877410889, 5.524632930755615, 5.707134008407593, 5.875359058380127, 6.075177907943726, 6.208369016647339, 6.42611289024353]",2016_May_04_1257,59.8530467331,Peak_procedure,001,DMF,
22,0,22,0,None,,,,,,,,,0,0,0,0,,,,,,,,,,23,0,True,0.000432968139648,-1.8,10.9,1,0.1,,,2016_May_04_1257,59.8530467331,Peak_procedure,001,DMF,
22,0,22,0,None,,,,,,,,,0,0,0,0,,,,,,,,,,23,0,True,1.90031290054,-1.8,10.9,1,0.1,,,2016_May_04_1257,59.8530467331,Peak_procedure,001,DMF,
22,0,22,0,None,,,,,,,,,0,0,0,0,,,,,,,,,,23,0,True,2.06695795059,-1.8,10.9,1,0.1,,,2016_May_04_1257,59.8530467331,Peak_procedure,001,DMF,
22,0,22,0,None,,,,,,,,,0,0,0,0,,,,,,,,,,23,0,True,2.23325586319,-1.8,10.9,1,0.1,,,2016_May_04_1257,59.8530467331,Peak_procedure,001,DMF,
22,0,22,0,None,,,,,,,,,0,0,0,0,,,,,,,,,,23,0,True,2.41548085213,-1.8,10.9,1,0.1,,,2016_May_04_1257,59.8530467331,Peak_procedure,001,DMF,
22,0,22,0,None,,,,,,,,,0,0,0,0,,,,,,,,,,23,0,True,2.58250403404,-1.8,10.9,1,0.1,,,2016_May_04_1257,59.8530467331,Peak_procedure,001,DMF,
22,0,22,0,None,,,,,,,,,0,0,0,0,,,,,,,,,,23,0,True,2.74933195114,-1.8,10.9,1,0.1,,,2016_May_04_1257,59.8530467331,Peak_procedure,001,DMF,
22,0,22,0,None,,,,,,,,,0,0,0,0,,,,,,,,,,23,0,True,3.55272603035,-1.8,10.9,1,0.1,,,2016_May_04_1257,59.8530467331,Peak_procedure,001,DMF,
22,0,22,0,None,,,,,,,,,0,0,0,0,,,,,,,,,,23,0,True,3.71956396103,-1.8,10.9,1,0.1,,,2016_May_04_1257,59.8530467331,Peak_procedure,001,DMF,
22,0,22,0,None,,,,,,,,,0,0,0,0,,,,,,,,,,23,0,True,3.88766002655,-1.8,10.9,1,0.1,,,2016_May_04_1257,59.8530467331,Peak_procedure,001,DMF,
22,0,22,0,None,,,,,,,,,0,0,0,0,,,,,,,,,,23,0,True,4.05371499062,-1.8,10.9,1,0.1,,,2016_May_04_1257,59.8530467331,Peak_procedure,001,DMF,
22,0,22,0,None,,,,,,,,,0,0,0,0,,,,,,,,,,23,0,True,4.87311887741,-1.8,10.9,1,0.1,,,2016_May_04_1257,59.8530467331,Peak_procedure,001,DMF,
22,0,22,0,None,,,,,,,,,0,0,0,0,,,,,,,,,,23,0,True,5.52463293076,-1.8,10.9,1,0.1,,,2016_May_04_1257,59.8530467331,Peak_procedure,001,DMF,
22,0,22,0,None,,,,,,,,,0,0,0,0,,,,,,,,,,23,0,True,5.70713400841,-1.8,10.9,1,0.1,,,2016_May_04_1257,59.8530467331,Peak_procedure,001,DMF,
22,0,22,0,None,,,,,,,,,0,0,0,0,,,,,,,,,,23,0,True,5.87535905838,-1.8,10.9,1,0.1,,,2016_May_04_1257,59.8530467331,Peak_procedure,001,DMF,
22,0,22,0,None,,,,,,,,,0,0,0,0,,,,,,,,,,23,0,True,6.07517790794,-1.8,10.9,1,0.1,,,2016_May_04_1257,59.8530467331,Peak_procedure,001,DMF,
22,0,22,0,None,,,,,,,,,0,0,0,0,,,,,,,,,,23,0,True,6.20836901665,-1.8,10.9,1,0.1,,,2016_May_04_1257,59.8530467331,Peak_procedure,001,DMF,
22,0,22,0,None,,,,,,,,,0,0,0,0,,,,,,,,,,23,0,True,6.42611289024,-1.8,10.9,1,0.1,,,2016_May_04_1257,59.8530467331,Peak_procedure,001,DMF,
22,0,22,0,None,,,,,,,,,0,0,0,0,,,,,,,,,,,,,,,,,,,,2016_May_04_1257,59.8530467331,Peak_procedure,001,DMF,
22,0,22,0,None,,,,,,,,,,,,,,,,,,,,,,,,,,,,,,,,2016_May_04_1257,59.8530467331,Peak_procedure,001,DMF,
23,0,23,0,None,0,0,0,0,,,,,,,,,,,,,None,,,"['space', 'space', 'space', 'space']","[2.6371140480041504, 2.8043651580810547, 2.9713361263275146, 3.289137125015259]",,,,,,,,,,,2016_May_04_1257,59.8530467331,Peak_procedure,001,DMF,
23,0,23,0,None,,,,,,,,,0,0,0,0,,,,,,,,,,24,1,False,2.637114048,0.7,11.6,1,0.1,,,2016_May_04_1257,59.8530467331,Peak_procedure,001,DMF,
23,0,23,0,None,,,,,,,,,0,0,0,0,,,,,,,,,,24,1,False,2.80436515808,0.7,11.6,1,0.1,,,2016_May_04_1257,59.8530467331,Peak_procedure,001,DMF,
23,0,23,0,None,,,,,,,,,0,0,0,0,,,,,,,,,,24,1,False,2.97133612633,0.7,11.6,1,0.1,,,2016_May_04_1257,59.8530467331,Peak_procedure,001,DMF,
23,0,23,0,None,,,,,,,,,0,0,0,0,,,,,,,,,,24,1,False,3.28913712502,0.7,11.6,1,0.1,,,2016_May_04_1257,59.8530467331,Peak_procedure,001,DMF,
23,0,23,0,None,,,,,,,,,0,0,0,0,,,,,,,,,,,,,,,,,,,,2016_May_04_1257,59.8530467331,Peak_procedure,001,DMF,
23,0,23,0,None,,,,,,,,,,,,,,,,,,,,,,,,,,,,,,,,2016_May_04_1257,59.8530467331,Peak_procedure,001,DMF,
24,0,24,0,None,,,,,0,0,0,0,,,,,,,,,,,,,,,,,,,,,,"['space', 'space', 'space', 'space', 'space', 'space', 'space', 'space', 'space', 'space', 'space', 'space', 'space']","[0.00026798248291015625, 2.4190001487731934, 2.585024118423462, 2.7687699794769287, 2.937049150466919, 3.5213229656219482, 3.6882519721984863, 3.854668140411377, 5.191020965576172, 5.42535400390625, 7.913671016693115, 8.080273151397705, 8.2985200881958]",2016_May_04_1257,59.8530467331,Peak_procedure,001,DMF,
24,0,24,0,None,,,,,,,,,0,0,0,0,,,,,,,,,,25,0,True,0.00026798248291,-1.3,10.3,1,0.1,,,2016_May_04_1257,59.8530467331,Peak_procedure,001,DMF,
24,0,24,0,None,,,,,,,,,0,0,0,0,,,,,,,,,,25,0,True,2.41900014877,-1.3,10.3,1,0.1,,,2016_May_04_1257,59.8530467331,Peak_procedure,001,DMF,
24,0,24,0,None,,,,,,,,,0,0,0,0,,,,,,,,,,25,0,True,2.58502411842,-1.3,10.3,1,0.1,,,2016_May_04_1257,59.8530467331,Peak_procedure,001,DMF,
24,0,24,0,None,,,,,,,,,0,0,0,0,,,,,,,,,,25,0,True,2.76876997948,-1.3,10.3,1,0.1,,,2016_May_04_1257,59.8530467331,Peak_procedure,001,DMF,
24,0,24,0,None,,,,,,,,,0,0,0,0,,,,,,,,,,25,0,True,2.93704915047,-1.3,10.3,1,0.1,,,2016_May_04_1257,59.8530467331,Peak_procedure,001,DMF,
24,0,24,0,None,,,,,,,,,0,0,0,0,,,,,,,,,,25,0,True,3.52132296562,-1.3,10.3,1,0.1,,,2016_May_04_1257,59.8530467331,Peak_procedure,001,DMF,
24,0,24,0,None,,,,,,,,,0,0,0,0,,,,,,,,,,25,0,True,3.6882519722,-1.3,10.3,1,0.1,,,2016_May_04_1257,59.8530467331,Peak_procedure,001,DMF,
24,0,24,0,None,,,,,,,,,0,0,0,0,,,,,,,,,,25,0,True,3.85466814041,-1.3,10.3,1,0.1,,,2016_May_04_1257,59.8530467331,Peak_procedure,001,DMF,
24,0,24,0,None,,,,,,,,,0,0,0,0,,,,,,,,,,25,0,True,5.19102096558,-1.3,10.3,1,0.1,,,2016_May_04_1257,59.8530467331,Peak_procedure,001,DMF,
24,0,24,0,None,,,,,,,,,0,0,0,0,,,,,,,,,,25,0,True,5.42535400391,-1.3,10.3,1,0.1,,,2016_May_04_1257,59.8530467331,Peak_procedure,001,DMF,
24,0,24,0,None,,,,,,,,,0,0,0,0,,,,,,,,,,25,0,True,7.91367101669,-1.3,10.3,1,0.1,,,2016_May_04_1257,59.8530467331,Peak_procedure,001,DMF,
24,0,24,0,None,,,,,,,,,0,0,0,0,,,,,,,,,,25,0,True,8.0802731514,-1.3,10.3,1,0.1,,,2016_May_04_1257,59.8530467331,Peak_procedure,001,DMF,
24,0,24,0,None,,,,,,,,,0,0,0,0,,,,,,,,,,25,0,True,8.2985200882,-1.3,10.3,1,0.1,,,2016_May_04_1257,59.8530467331,Peak_procedure,001,DMF,
24,0,24,0,None,,,,,,,,,0,0,0,0,,,,,,,,,,,,,,,,,,,,2016_May_04_1257,59.8530467331,Peak_procedure,001,DMF,
24,0,24,0,None,,,,,,,,,,,,,,,,,,,,,,,,,,,,,,,,2016_May_04_1257,59.8530467331,Peak_procedure,001,DMF,
25,0,25,0,None,,,,,0,0,0,0,,,,,,,,,,,,,,,,,,,,,,"['space', 'space', 'space', 'space', 'space', 'space', 'space', 'space', 'space', 'space', 'space', 'space']","[1.0322849750518799, 1.200179100036621, 1.366854190826416, 1.5340549945831299, 2.01875901222229, 2.202730178833008, 2.369631052017212, 2.5866200923919678, 3.0208981037139893, 3.1879420280456543, 3.3716251850128174, 3.522062063217163]",2016_May_04_1257,59.8530467331,Peak_procedure,001,DMF,
25,0,25,0,None,,,,,,,,,0,0,0,0,,,,,,,,,,26,0,True,1.03228497505,-1.2,9.1,1,0.1,,,2016_May_04_1257,59.8530467331,Peak_procedure,001,DMF,
25,0,25,0,None,,,,,,,,,0,0,0,0,,,,,,,,,,26,0,True,1.20017910004,-1.2,9.1,1,0.1,,,2016_May_04_1257,59.8530467331,Peak_procedure,001,DMF,
25,0,25,0,None,,,,,,,,,0,0,0,0,,,,,,,,,,26,0,True,1.36685419083,-1.2,9.1,1,0.1,,,2016_May_04_1257,59.8530467331,Peak_procedure,001,DMF,
25,0,25,0,None,,,,,,,,,0,0,0,0,,,,,,,,,,26,0,True,1.53405499458,-1.2,9.1,1,0.1,,,2016_May_04_1257,59.8530467331,Peak_procedure,001,DMF,
25,0,25,0,None,,,,,,,,,0,0,0,0,,,,,,,,,,26,0,True,2.01875901222,-1.2,9.1,1,0.1,,,2016_May_04_1257,59.8530467331,Peak_procedure,001,DMF,
25,0,25,0,None,,,,,,,,,0,0,0,0,,,,,,,,,,26,0,True,2.20273017883,-1.2,9.1,1,0.1,,,2016_May_04_1257,59.8530467331,Peak_procedure,001,DMF,
25,0,25,0,None,,,,,,,,,0,0,0,0,,,,,,,,,,26,0,True,2.36963105202,-1.2,9.1,1,0.1,,,2016_May_04_1257,59.8530467331,Peak_procedure,001,DMF,
25,0,25,0,None,,,,,,,,,0,0,0,0,,,,,,,,,,26,0,True,2.58662009239,-1.2,9.1,1,0.1,,,2016_May_04_1257,59.8530467331,Peak_procedure,001,DMF,
25,0,25,0,None,,,,,,,,,0,0,0,0,,,,,,,,,,26,0,True,3.02089810371,-1.2,9.1,1,0.1,,,2016_May_04_1257,59.8530467331,Peak_procedure,001,DMF,
25,0,25,0,None,,,,,,,,,0,0,0,0,,,,,,,,,,26,0,True,3.18794202805,-1.2,9.1,1,0.1,,,2016_May_04_1257,59.8530467331,Peak_procedure,001,DMF,
25,0,25,0,None,,,,,,,,,0,0,0,0,,,,,,,,,,26,0,True,3.37162518501,-1.2,9.1,1,0.1,,,2016_May_04_1257,59.8530467331,Peak_procedure,001,DMF,
25,0,25,0,None,,,,,,,,,0,0,0,0,,,,,,,,,,26,0,True,3.52206206322,-1.2,9.1,1,0.1,,,2016_May_04_1257,59.8530467331,Peak_procedure,001,DMF,
25,0,25,0,None,,,,,,,,,0,0,0,0,,,,,,,,,,,,,,,,,,,,2016_May_04_1257,59.8530467331,Peak_procedure,001,DMF,
25,0,25,0,None,,,,,,,,,,,,,,,,,,,,,,,,,,,,,,,,2016_May_04_1257,59.8530467331,Peak_procedure,001,DMF,
26,0,26,0,None,0,0,0,0,,,,,,,,,,,,,None,,,"['space', 'space', 'space', 'space', 'space', 'space', 'space', 'space']","[1.5130009651184082, 1.6608541011810303, 1.8279130458831787, 2.0141959190368652, 2.499290943145752, 2.682482957839966, 2.8495640754699707, 3.616344928741455]",,,,,,,,,,,2016_May_04_1257,59.8530467331,Peak_procedure,001,DMF,
26,0,26,0,None,,,,,,,,,0,0,0,0,,,,,,,,,,27,1,False,1.51300096512,0.3,9.4,1,0.1,,,2016_May_04_1257,59.8530467331,Peak_procedure,001,DMF,
26,0,26,0,None,,,,,,,,,0,0,0,0,,,,,,,,,,27,1,False,1.66085410118,0.3,9.4,1,0.1,,,2016_May_04_1257,59.8530467331,Peak_procedure,001,DMF,
26,0,26,0,None,,,,,,,,,0,0,0,0,,,,,,,,,,27,1,False,1.82791304588,0.3,9.4,1,0.1,,,2016_May_04_1257,59.8530467331,Peak_procedure,001,DMF,
26,0,26,0,None,,,,,,,,,0,0,0,0,,,,,,,,,,27,1,False,2.01419591904,0.3,9.4,1,0.1,,,2016_May_04_1257,59.8530467331,Peak_procedure,001,DMF,
26,0,26,0,None,,,,,,,,,0,0,0,0,,,,,,,,,,27,1,False,2.49929094315,0.3,9.4,1,0.1,,,2016_May_04_1257,59.8530467331,Peak_procedure,001,DMF,
26,0,26,0,None,,,,,,,,,0,0,0,0,,,,,,,,,,27,1,False,2.68248295784,0.3,9.4,1,0.1,,,2016_May_04_1257,59.8530467331,Peak_procedure,001,DMF,
26,0,26,0,None,,,,,,,,,0,0,0,0,,,,,,,,,,27,1,False,2.84956407547,0.3,9.4,1,0.1,,,2016_May_04_1257,59.8530467331,Peak_procedure,001,DMF,
26,0,26,0,None,,,,,,,,,0,0,0,0,,,,,,,,,,27,1,False,3.61634492874,0.3,9.4,1,0.1,,,2016_May_04_1257,59.8530467331,Peak_procedure,001,DMF,
26,0,26,0,None,,,,,,,,,0,0,0,0,,,,,,,,,,,,,,,,,,,,2016_May_04_1257,59.8530467331,Peak_procedure,001,DMF,
26,0,26,0,None,,,,,,,,,,,,,,,,,,,,,,,,,,,,,,,,2016_May_04_1257,59.8530467331,Peak_procedure,001,DMF,
27,0,27,0,None,0,0,0,0,,,,,,,,,,,,,None,,,"['space', 'space']","[0.00025010108947753906, 3.3480069637298584]",,,,,,,,,,,2016_May_04_1257,59.8530467331,Peak_procedure,001,DMF,
27,0,27,0,None,,,,,,,,,0,0,0,0,,,,,,,,,,28,1,False,0.000250101089478,0.9,10.3,1,0.1,,,2016_May_04_1257,59.8530467331,Peak_procedure,001,DMF,
27,0,27,0,None,,,,,,,,,0,0,0,0,,,,,,,,,,28,1,False,3.34800696373,0.9,10.3,1,0.1,,,2016_May_04_1257,59.8530467331,Peak_procedure,001,DMF,
27,0,27,0,None,,,,,,,,,0,0,0,0,,,,,,,,,,,,,,,,,,,,2016_May_04_1257,59.8530467331,Peak_procedure,001,DMF,
27,0,27,0,None,,,,,,,,,,,,,,,,,,,,,,,,,,,,,,,,2016_May_04_1257,59.8530467331,Peak_procedure,001,DMF,
28,0,28,0,None,,,,,0,0,0,0,,,,,,,,,,,,,,,,,,,,,,"['space', 'space', 'space', 'space', 'space', 'space', 'space', 'space', 'space', 'space']","[0.0002751350402832031, 2.334613084793091, 2.501697063446045, 2.6682169437408447, 2.851818084716797, 3.1190431118011475, 3.3200881481170654, 4.25265908241272, 4.456019163131714, 5.3740880489349365]",2016_May_04_1257,59.8530467331,Peak_procedure,001,DMF,
28,0,28,0,None,,,,,,,,,0,0,0,0,,,,,,,,,,29,0,True,0.000275135040283,-1.0,9.3,1,0.1,,,2016_May_04_1257,59.8530467331,Peak_procedure,001,DMF,
28,0,28,0,None,,,,,,,,,0,0,0,0,,,,,,,,,,29,0,True,2.33461308479,-1.0,9.3,1,0.1,,,2016_May_04_1257,59.8530467331,Peak_procedure,001,DMF,
28,0,28,0,None,,,,,,,,,0,0,0,0,,,,,,,,,,29,0,True,2.50169706345,-1.0,9.3,1,0.1,,,2016_May_04_1257,59.8530467331,Peak_procedure,001,DMF,
28,0,28,0,None,,,,,,,,,0,0,0,0,,,,,,,,,,29,0,True,2.66821694374,-1.0,9.3,1,0.1,,,2016_May_04_1257,59.8530467331,Peak_procedure,001,DMF,
28,0,28,0,None,,,,,,,,,0,0,0,0,,,,,,,,,,29,0,True,2.85181808472,-1.0,9.3,1,0.1,,,2016_May_04_1257,59.8530467331,Peak_procedure,001,DMF,
28,0,28,0,None,,,,,,,,,0,0,0,0,,,,,,,,,,29,0,True,3.1190431118,-1.0,9.3,1,0.1,,,2016_May_04_1257,59.8530467331,Peak_procedure,001,DMF,
28,0,28,0,None,,,,,,,,,0,0,0,0,,,,,,,,,,29,0,True,3.32008814812,-1.0,9.3,1,0.1,,,2016_May_04_1257,59.8530467331,Peak_procedure,001,DMF,
28,0,28,0,None,,,,,,,,,0,0,0,0,,,,,,,,,,29,0,True,4.25265908241,-1.0,9.3,1,0.1,,,2016_May_04_1257,59.8530467331,Peak_procedure,001,DMF,
28,0,28,0,None,,,,,,,,,0,0,0,0,,,,,,,,,,29,0,True,4.45601916313,-1.0,9.3,1,0.1,,,2016_May_04_1257,59.8530467331,Peak_procedure,001,DMF,
28,0,28,0,None,,,,,,,,,0,0,0,0,,,,,,,,,,29,0,True,5.37408804893,-1.0,9.3,1,0.1,,,2016_May_04_1257,59.8530467331,Peak_procedure,001,DMF,
28,0,28,0,None,,,,,,,,,0,0,0,0,,,,,,,,,,,,,,,,,,,,2016_May_04_1257,59.8530467331,Peak_procedure,001,DMF,
28,0,28,0,None,,,,,,,,,,,,,,,,,,,,,,,,,,,,,,,,2016_May_04_1257,59.8530467331,Peak_procedure,001,DMF,
29,0,29,0,None,0,0,0,0,,,,,,,,,,,,,None,,,"['space', 'space', 'space', 'space']","[2.615417003631592, 2.8159141540527344, 2.9820921421051025, 3.1307220458984375]",,,,,,,,,,,2016_May_04_1257,59.8530467331,Peak_procedure,001,DMF,
29,0,29,0,None,,,,,,,,,0,0,0,0,,,,,,,,,,30,1,False,2.61541700363,0.7,10.0,1,0.1,,,2016_May_04_1257,59.8530467331,Peak_procedure,001,DMF,
29,0,29,0,None,,,,,,,,,0,0,0,0,,,,,,,,,,30,1,False,2.81591415405,0.7,10.0,1,0.1,,,2016_May_04_1257,59.8530467331,Peak_procedure,001,DMF,
29,0,29,0,None,,,,,,,,,0,0,0,0,,,,,,,,,,30,1,False,2.98209214211,0.7,10.0,1,0.1,,,2016_May_04_1257,59.8530467331,Peak_procedure,001,DMF,
29,0,29,0,None,,,,,,,,,0,0,0,0,,,,,,,,,,30,1,False,3.1307220459,0.7,10.0,1,0.1,,,2016_May_04_1257,59.8530467331,Peak_procedure,001,DMF,
29,0,29,0,None,,,,,,,,,0,0,0,0,,,,,,,,,,,,,,,,,,,,2016_May_04_1257,59.8530467331,Peak_procedure,001,DMF,
29,0,29,0,None,,,,,,,,,,,,,,,,,,,,,,,,,,,,,,,,2016_May_04_1257,59.8530467331,Peak_procedure,001,DMF,
30,0,30,0,None,0,0,0,0,,,,,,,,,,,,,None,,,['space'],[3.1537117958068848],,,,,,,,,,,2016_May_04_1257,59.8530467331,Peak_procedure,001,DMF,
30,0,30,0,None,,,,,,,,,0,0,0,0,,,,,,,,,,31,1,False,3.15371179581,1,11.0,1,0.1,,,2016_May_04_1257,59.8530467331,Peak_procedure,001,DMF,
30,0,30,0,None,,,,,,,,,0,0,0,0,,,,,,,,,,,,,,,,,,,,2016_May_04_1257,59.8530467331,Peak_procedure,001,DMF,
30,0,30,0,None,,,,,,,,,,,,,,,,,,,,,,,,,,,,,,,,2016_May_04_1257,59.8530467331,Peak_procedure,001,DMF,
31,0,31,0,None,0,0,0,0,,,,,,,,,,,,,None,,,"['space', 'space', 'space', 'space', 'space', 'space', 'space']","[0.00024390220642089844, 2.625670909881592, 2.8255650997161865, 2.9931929111480713, 3.160191059112549]",,,,,,,,,,,2016_May_04_1257,59.8530467331,Peak_procedure,001,DMF,
31,0,31,0,None,,,,,,,,,0,0,0,0,,,,,,,,,,32,1,False,0.000243902206421,0.6,11.6,1,0.1,,,2016_May_04_1257,59.8530467331,Peak_procedure,001,DMF,
31,0,31,0,None,,,,,,,,,0,0,0,0,,,,,,,,,,32,1,False,2.62567090988,0.6,11.6,1,0.1,,,2016_May_04_1257,59.8530467331,Peak_procedure,001,DMF,
31,0,31,0,None,,,,,,,,,0,0,0,0,,,,,,,,,,32,1,False,2.82556509972,0.6,11.6,1,0.1,,,2016_May_04_1257,59.8530467331,Peak_procedure,001,DMF,
31,0,31,0,None,,,,,,,,,0,0,0,0,,,,,,,,,,32,1,False,2.99319291115,0.6,11.6,1,0.1,,,2016_May_04_1257,59.8530467331,Peak_procedure,001,DMF,
31,0,31,0,None,,,,,,,,,0,0,0,0,,,,,,,,,,32,1,False,3.16019105911,0.6,11.6,1,0.1,,,2016_May_04_1257,59.8530467331,Peak_procedure,001,DMF,
31,0,31,0,None,,,,,,,,,0,0,0,0,,,,,,,,,,,,,,,,,,,,2016_May_04_1257,59.8530467331,Peak_procedure,001,DMF,
31,0,31,0,None,,,,,,,,,,,,,,,,,,,,,,,,,,,,,,,,2016_May_04_1257,59.8530467331,Peak_procedure,001,DMF,
32,0,32,0,None,,,,,0,0,0,0,,,,,,,,,,,,,,,,,,,,,,['space'],[0.00026988983154296875],2016_May_04_1257,59.8530467331,Peak_procedure,001,DMF,
32,0,32,0,None,,,,,,,,,0,0,0,0,,,,,,,,,,33,0,True,0.000269889831543,-0.1,11.5,1,0.1,,,2016_May_04_1257,59.8530467331,Peak_procedure,001,DMF,
32,0,32,0,None,,,,,,,,,0,0,0,0,,,,,,,,,,,,,,,,,,,,2016_May_04_1257,59.8530467331,Peak_procedure,001,DMF,
32,0,32,0,None,,,,,,,,,,,,,,,,,,,,,,,,,,,,,,,,2016_May_04_1257,59.8530467331,Peak_procedure,001,DMF,
33,0,33,0,None,,,,,0,0,0,0,,,,,,,,,,,,,,,,,,,,,,None,,2016_May_04_1257,59.8530467331,Peak_procedure,001,DMF,
33,0,33,0,None,,,,,,,,,0,0,0,0,,,,,,,,,,,,,,,,,,,,2016_May_04_1257,59.8530467331,Peak_procedure,001,DMF,
33,0,33,0,None,,,,,,,,,,,,,,,,,,,,,,,,,,,,,,,,2016_May_04_1257,59.8530467331,Peak_procedure,001,DMF,
34,0,34,0,None,,,,,0,0,0,0,,,,,,,,,,,,,,,,,,,,,,None,,2016_May_04_1257,59.8530467331,Peak_procedure,001,DMF,
34,0,34,0,None,,,,,,,,,0,0,0,0,,,,,,,,,,,,,,,,,,,,2016_May_04_1257,59.8530467331,Peak_procedure,001,DMF,
34,0,34,0,None,,,,,,,,,,,,,,,,,,,,,,,,,,,,,,,,2016_May_04_1257,59.8530467331,Peak_procedure,001,DMF,
