trials.thisRepN,trials.thisTrialN,trials.thisN,trials.thisIndex,trials.thisTrial,Fixed_Interval_Loop.thisRepN,Fixed_Interval_Loop.thisTrialN,Fixed_Interval_Loop.thisN,Fixed_Interval_Loop.thisIndex,Peak_Interval_Loop.thisRepN,Peak_Interval_Loop.thisTrialN,Peak_Interval_Loop.thisN,Peak_Interval_Loop.thisIndex,feedback_Loop.thisRepN,feedback_Loop.thisTrialN,feedback_Loop.thisN,feedback_Loop.thisIndex,Break_Loop.thisRepN,Break_Loop.thisTrialN,Break_Loop.thisN,Break_Loop.thisIndex,instructions_key.keys,instructions_key.rt,fixed_response.keys,fixed_response.rt,trial_number,is_fi_trial,is_pi_trial,response_time,score,total_score,reward,cost,peak_response.keys,peak_response.rt,date,frameRate,expName,session,participant,
,,,,,,,,,,,,,,,,,,,,,space,8.92863988876,,,,,,,,,,,,,2016_May_04_1312,59.8942430582,Peak_procedure,001,FB,
0,0,0,0,None,0,0,0,0,,,,,,,,,,,,,,,['space'],[8.858980894088745],,,,,,,,,,,2016_May_04_1312,59.8942430582,Peak_procedure,001,FB,
0,0,0,0,None,,,,,,,,,0,0,0,0,,,,,,,,,1,1,False,8.85898089409,1,1,1,0.1,,,2016_May_04_1312,59.8942430582,Peak_procedure,001,FB,
0,0,0,0,None,,,,,,,,,0,0,0,0,,,,,,,,,,,,,,,,,,,2016_May_04_1312,59.8942430582,Peak_procedure,001,FB,
0,0,0,0,None,,,,,,,,,,,,,,,,,,,,,,,,,,,,,,,2016_May_04_1312,59.8942430582,Peak_procedure,001,FB,
1,0,1,0,None,0,0,0,0,,,,,,,,,,,,,,,"['space', 'space', 'space']","[0.00025200843811035156, 2.907796859741211, 3.0764968395233154]",,,,,,,,,,,2016_May_04_1312,59.8942430582,Peak_procedure,001,FB,
1,0,1,0,None,,,,,,,,,0,0,0,0,,,,,,,,,2,1,False,0.00025200843811,0.8,1.8,1,0.1,,,2016_May_04_1312,59.8942430582,Peak_procedure,001,FB,
1,0,1,0,None,,,,,,,,,0,0,0,0,,,,,,,,,2,1,False,2.90779685974,0.8,1.8,1,0.1,,,2016_May_04_1312,59.8942430582,Peak_procedure,001,FB,
1,0,1,0,None,,,,,,,,,0,0,0,0,,,,,,,,,2,1,False,3.07649683952,0.8,1.8,1,0.1,,,2016_May_04_1312,59.8942430582,Peak_procedure,001,FB,
1,0,1,0,None,,,,,,,,,0,0,0,0,,,,,,,,,,,,,,,,,,,2016_May_04_1312,59.8942430582,Peak_procedure,001,FB,
1,0,1,0,None,,,,,,,,,,,,,,,,,,,,,,,,,,,,,,,2016_May_04_1312,59.8942430582,Peak_procedure,001,FB,
2,0,2,0,None,0,0,0,0,,,,,,,,,,,,,,,"['space', 'space', 'space', 'space', 'space']","[0.00024390220642089844, 2.5115089416503906, 2.610377788543701, 2.7786099910736084, 3.3467259407043457]",,,,,,,,,,,2016_May_04_1312,59.8942430582,Peak_procedure,001,FB,
2,0,2,0,None,,,,,,,,,0,0,0,0,,,,,,,,,3,1,False,0.000243902206421,0.6,2.4,1,0.1,,,2016_May_04_1312,59.8942430582,Peak_procedure,001,FB,
2,0,2,0,None,,,,,,,,,0,0,0,0,,,,,,,,,3,1,False,2.51150894165,0.6,2.4,1,0.1,,,2016_May_04_1312,59.8942430582,Peak_procedure,001,FB,
2,0,2,0,None,,,,,,,,,0,0,0,0,,,,,,,,,3,1,False,2.61037778854,0.6,2.4,1,0.1,,,2016_May_04_1312,59.8942430582,Peak_procedure,001,FB,
2,0,2,0,None,,,,,,,,,0,0,0,0,,,,,,,,,3,1,False,2.77860999107,0.6,2.4,1,0.1,,,2016_May_04_1312,59.8942430582,Peak_procedure,001,FB,
2,0,2,0,None,,,,,,,,,0,0,0,0,,,,,,,,,3,1,False,3.3467259407,0.6,2.4,1,0.1,,,2016_May_04_1312,59.8942430582,Peak_procedure,001,FB,
2,0,2,0,None,,,,,,,,,0,0,0,0,,,,,,,,,,,,,,,,,,,2016_May_04_1312,59.8942430582,Peak_procedure,001,FB,
2,0,2,0,None,,,,,,,,,,,,,,,,,,,,,,,,,,,,,,,2016_May_04_1312,59.8942430582,Peak_procedure,001,FB,
3,0,3,0,None,0,0,0,0,,,,,,,,,,,,,,,"['space', 'space', 'space', 'space', 'space']","[2.467824935913086, 2.6343369483947754, 2.7850570678710938, 2.9183311462402344, 3.286306142807007]",,,,,,,,,,,2016_May_04_1312,59.8942430582,Peak_procedure,001,FB,
3,0,3,0,None,,,,,,,,,0,0,0,0,,,,,,,,,4,1,False,2.46782493591,0.6,3.0,1,0.1,,,2016_May_04_1312,59.8942430582,Peak_procedure,001,FB,
3,0,3,0,None,,,,,,,,,0,0,0,0,,,,,,,,,4,1,False,2.63433694839,0.6,3.0,1,0.1,,,2016_May_04_1312,59.8942430582,Peak_procedure,001,FB,
3,0,3,0,None,,,,,,,,,0,0,0,0,,,,,,,,,4,1,False,2.78505706787,0.6,3.0,1,0.1,,,2016_May_04_1312,59.8942430582,Peak_procedure,001,FB,
3,0,3,0,None,,,,,,,,,0,0,0,0,,,,,,,,,4,1,False,2.91833114624,0.6,3.0,1,0.1,,,2016_May_04_1312,59.8942430582,Peak_procedure,001,FB,
3,0,3,0,None,,,,,,,,,0,0,0,0,,,,,,,,,4,1,False,3.28630614281,0.6,3.0,1,0.1,,,2016_May_04_1312,59.8942430582,Peak_procedure,001,FB,
3,0,3,0,None,,,,,,,,,0,0,0,0,,,,,,,,,,,,,,,,,,,2016_May_04_1312,59.8942430582,Peak_procedure,001,FB,
3,0,3,0,None,,,,,,,,,,,,,,,,,,,,,,,,,,,,,,,2016_May_04_1312,59.8942430582,Peak_procedure,001,FB,
4,0,4,0,None,0,0,0,0,,,,,,,,,,,,,,,"['space', 'space', 'space', 'space', 'space']","[0.00036787986755371094, 2.5677359104156494, 2.7346999645233154, 2.919625997543335, 3.0689640045166016]",,,,,,,,,,,2016_May_04_1312,59.8942430582,Peak_procedure,001,FB,
4,0,4,0,None,,,,,,,,,0,0,0,0,,,,,,,,,5,1,False,0.000367879867554,0.6,3.6,1,0.1,,,2016_May_04_1312,59.8942430582,Peak_procedure,001,FB,
4,0,4,0,None,,,,,,,,,0,0,0,0,,,,,,,,,5,1,False,2.56773591042,0.6,3.6,1,0.1,,,2016_May_04_1312,59.8942430582,Peak_procedure,001,FB,
4,0,4,0,None,,,,,,,,,0,0,0,0,,,,,,,,,5,1,False,2.73469996452,0.6,3.6,1,0.1,,,2016_May_04_1312,59.8942430582,Peak_procedure,001,FB,
4,0,4,0,None,,,,,,,,,0,0,0,0,,,,,,,,,5,1,False,2.91962599754,0.6,3.6,1,0.1,,,2016_May_04_1312,59.8942430582,Peak_procedure,001,FB,
4,0,4,0,None,,,,,,,,,0,0,0,0,,,,,,,,,5,1,False,3.06896400452,0.6,3.6,1,0.1,,,2016_May_04_1312,59.8942430582,Peak_procedure,001,FB,
4,0,4,0,None,,,,,,,,,0,0,0,0,,,,,,,,,,,,,,,,,,,2016_May_04_1312,59.8942430582,Peak_procedure,001,FB,
4,0,4,0,None,,,,,,,,,,,,,,,,,,,,,,,,,,,,,,,2016_May_04_1312,59.8942430582,Peak_procedure,001,FB,
5,0,5,0,None,0,0,0,0,,,,,,,,,,,,,,,"['space', 'space']","[0.0002510547637939453, 3.5555360317230225]",,,,,,,,,,,2016_May_04_1312,59.8942430582,Peak_procedure,001,FB,
5,0,5,0,None,,,,,,,,,0,0,0,0,,,,,,,,,6,1,False,0.000251054763794,0.9,4.5,1,0.1,,,2016_May_04_1312,59.8942430582,Peak_procedure,001,FB,
5,0,5,0,None,,,,,,,,,0,0,0,0,,,,,,,,,6,1,False,3.55553603172,0.9,4.5,1,0.1,,,2016_May_04_1312,59.8942430582,Peak_procedure,001,FB,
5,0,5,0,None,,,,,,,,,0,0,0,0,,,,,,,,,,,,,,,,,,,2016_May_04_1312,59.8942430582,Peak_procedure,001,FB,
5,0,5,0,None,,,,,,,,,,,,,,,,,,,,,,,,,,,,,,,2016_May_04_1312,59.8942430582,Peak_procedure,001,FB,
6,0,6,0,None,0,0,0,0,,,,,,,,,,,,,,,"['space', 'space', 'space']","[0.000247955322265625, 3.51898193359375]",,,,,,,,,,,2016_May_04_1312,59.8942430582,Peak_procedure,001,FB,
6,0,6,0,None,,,,,,,,,0,0,0,0,,,,,,,,,7,1,False,0.000247955322266,0.9,5.4,1,0.1,,,2016_May_04_1312,59.8942430582,Peak_procedure,001,FB,
6,0,6,0,None,,,,,,,,,0,0,0,0,,,,,,,,,7,1,False,3.51898193359,0.9,5.4,1,0.1,,,2016_May_04_1312,59.8942430582,Peak_procedure,001,FB,
6,0,6,0,None,,,,,,,,,0,0,0,0,,,,,,,,,,,,,,,,,,,2016_May_04_1312,59.8942430582,Peak_procedure,001,FB,
6,0,6,0,None,,,,,,,,,,,,,,,,,,,,,,,,,,,,,,,2016_May_04_1312,59.8942430582,Peak_procedure,001,FB,
7,0,7,0,None,0,0,0,0,,,,,,,,,,,,,,,"['space', 'space', 'space', 'space']","[0.00024509429931640625, 3.5790622234344482]",,,,,,,,,,,2016_May_04_1312,59.8942430582,Peak_procedure,001,FB,
7,0,7,0,None,,,,,,,,,0,0,0,0,,,,,,,,,8,1,False,0.000245094299316,0.9,6.3,1,0.1,,,2016_May_04_1312,59.8942430582,Peak_procedure,001,FB,
7,0,7,0,None,,,,,,,,,0,0,0,0,,,,,,,,,8,1,False,3.57906222343,0.9,6.3,1,0.1,,,2016_May_04_1312,59.8942430582,Peak_procedure,001,FB,
7,0,7,0,None,,,,,,,,,0,0,0,0,,,,,,,,,,,,,,,,,,,2016_May_04_1312,59.8942430582,Peak_procedure,001,FB,
7,0,7,0,None,,,,,,,,,,,,,,,,,,,,,,,,,,,,,,,2016_May_04_1312,59.8942430582,Peak_procedure,001,FB,
8,0,8,0,None,0,0,0,0,,,,,,,,,,,,,,,"['space', 'space', 'space', 'space', 'space', 'space']","[0.00024509429931640625, 1.3384020328521729, 1.5245110988616943, 1.691559076309204, 2.627164125442505, 3.111294984817505]",,,,,,,,,,,2016_May_04_1312,59.8942430582,Peak_procedure,001,FB,
8,0,8,0,None,,,,,,,,,0,0,0,0,,,,,,,,,9,1,False,0.000245094299316,0.5,6.8,1,0.1,,,2016_May_04_1312,59.8942430582,Peak_procedure,001,FB,
8,0,8,0,None,,,,,,,,,0,0,0,0,,,,,,,,,9,1,False,1.33840203285,0.5,6.8,1,0.1,,,2016_May_04_1312,59.8942430582,Peak_procedure,001,FB,
8,0,8,0,None,,,,,,,,,0,0,0,0,,,,,,,,,9,1,False,1.52451109886,0.5,6.8,1,0.1,,,2016_May_04_1312,59.8942430582,Peak_procedure,001,FB,
8,0,8,0,None,,,,,,,,,0,0,0,0,,,,,,,,,9,1,False,1.69155907631,0.5,6.8,1,0.1,,,2016_May_04_1312,59.8942430582,Peak_procedure,001,FB,
8,0,8,0,None,,,,,,,,,0,0,0,0,,,,,,,,,9,1,False,2.62716412544,0.5,6.8,1,0.1,,,2016_May_04_1312,59.8942430582,Peak_procedure,001,FB,
8,0,8,0,None,,,,,,,,,0,0,0,0,,,,,,,,,9,1,False,3.11129498482,0.5,6.8,1,0.1,,,2016_May_04_1312,59.8942430582,Peak_procedure,001,FB,
8,0,8,0,None,,,,,,,,,0,0,0,0,,,,,,,,,,,,,,,,,,,2016_May_04_1312,59.8942430582,Peak_procedure,001,FB,
8,0,8,0,None,,,,,,,,,,,,,,,,,,,,,,,,,,,,,,,2016_May_04_1312,59.8942430582,Peak_procedure,001,FB,
9,0,9,0,None,0,0,0,0,,,,,,,,,,,,,,,"['space', 'space', 'space', 'space', 'space', 'space', 'space', 'space', 'space', 'space', 'space', 'space', 'space']","[0.00023984909057617188, 0.07578396797180176, 0.2262740135192871, 0.3941218852996826, 2.1443819999694824, 2.3140058517456055, 2.446544885635376, 2.6140859127044678, 2.7817130088806152, 2.9315149784088135, 3.114989995956421]",,,,,,,,,,,2016_May_04_1312,59.8942430582,Peak_procedure,001,FB,
9,0,9,0,None,,,,,,,,,0,0,0,0,,,,,,,,,10,1,False,0.000239849090576,1.11022302463e-16,6.8,1,0.1,,,2016_May_04_1312,59.8942430582,Peak_procedure,001,FB,
9,0,9,0,None,,,,,,,,,0,0,0,0,,,,,,,,,10,1,False,0.0757839679718,1.11022302463e-16,6.8,1,0.1,,,2016_May_04_1312,59.8942430582,Peak_procedure,001,FB,
9,0,9,0,None,,,,,,,,,0,0,0,0,,,,,,,,,10,1,False,0.226274013519,1.11022302463e-16,6.8,1,0.1,,,2016_May_04_1312,59.8942430582,Peak_procedure,001,FB,
9,0,9,0,None,,,,,,,,,0,0,0,0,,,,,,,,,10,1,False,0.3941218853,1.11022302463e-16,6.8,1,0.1,,,2016_May_04_1312,59.8942430582,Peak_procedure,001,FB,
9,0,9,0,None,,,,,,,,,0,0,0,0,,,,,,,,,10,1,False,2.14438199997,1.11022302463e-16,6.8,1,0.1,,,2016_May_04_1312,59.8942430582,Peak_procedure,001,FB,
9,0,9,0,None,,,,,,,,,0,0,0,0,,,,,,,,,10,1,False,2.31400585175,1.11022302463e-16,6.8,1,0.1,,,2016_May_04_1312,59.8942430582,Peak_procedure,001,FB,
9,0,9,0,None,,,,,,,,,0,0,0,0,,,,,,,,,10,1,False,2.44654488564,1.11022302463e-16,6.8,1,0.1,,,2016_May_04_1312,59.8942430582,Peak_procedure,001,FB,
9,0,9,0,None,,,,,,,,,0,0,0,0,,,,,,,,,10,1,False,2.6140859127,1.11022302463e-16,6.8,1,0.1,,,2016_May_04_1312,59.8942430582,Peak_procedure,001,FB,
9,0,9,0,None,,,,,,,,,0,0,0,0,,,,,,,,,10,1,False,2.78171300888,1.11022302463e-16,6.8,1,0.1,,,2016_May_04_1312,59.8942430582,Peak_procedure,001,FB,
9,0,9,0,None,,,,,,,,,0,0,0,0,,,,,,,,,10,1,False,2.93151497841,1.11022302463e-16,6.8,1,0.1,,,2016_May_04_1312,59.8942430582,Peak_procedure,001,FB,
9,0,9,0,None,,,,,,,,,0,0,0,0,,,,,,,,,10,1,False,3.11498999596,1.11022302463e-16,6.8,1,0.1,,,2016_May_04_1312,59.8942430582,Peak_procedure,001,FB,
9,0,9,0,None,,,,,,,,,0,0,0,0,,,,,,,,,,,,,,,,,,,2016_May_04_1312,59.8942430582,Peak_procedure,001,FB,
9,0,9,0,None,,,,,,,,,,,,,,,,,,,,,,,,,,,,,,,2016_May_04_1312,59.8942430582,Peak_procedure,001,FB,
10,0,10,0,None,0,0,0,0,,,,,,,,,,,,,,,"['space', 'space', 'space', 'space', 'space']","[1.7924699783325195, 2.010085105895996, 2.70849609375, 2.9452121257781982, 3.0928659439086914]",,,,,,,,,,,2016_May_04_1312,59.8942430582,Peak_procedure,001,FB,
10,0,10,0,None,,,,,,,,,0,0,0,0,,,,,,,,,11,1,False,1.79246997833,0.6,7.4,1,0.1,,,2016_May_04_1312,59.8942430582,Peak_procedure,001,FB,
10,0,10,0,None,,,,,,,,,0,0,0,0,,,,,,,,,11,1,False,2.0100851059,0.6,7.4,1,0.1,,,2016_May_04_1312,59.8942430582,Peak_procedure,001,FB,
10,0,10,0,None,,,,,,,,,0,0,0,0,,,,,,,,,11,1,False,2.70849609375,0.6,7.4,1,0.1,,,2016_May_04_1312,59.8942430582,Peak_procedure,001,FB,
10,0,10,0,None,,,,,,,,,0,0,0,0,,,,,,,,,11,1,False,2.94521212578,0.6,7.4,1,0.1,,,2016_May_04_1312,59.8942430582,Peak_procedure,001,FB,
10,0,10,0,None,,,,,,,,,0,0,0,0,,,,,,,,,11,1,False,3.09286594391,0.6,7.4,1,0.1,,,2016_May_04_1312,59.8942430582,Peak_procedure,001,FB,
10,0,10,0,None,,,,,,,,,0,0,0,0,,,,,,,,,,,,,,,,,,,2016_May_04_1312,59.8942430582,Peak_procedure,001,FB,
10,0,10,0,None,,,,,,,,,,,,,,,,,,,,,,,,,,,,,,,2016_May_04_1312,59.8942430582,Peak_procedure,001,FB,
11,0,11,0,None,0,0,0,0,,,,,,,,,,,,,,,"['space', 'space', 'space']","[2.6492319107055664, 2.8328099250793457, 3.1007559299468994]",,,,,,,,,,,2016_May_04_1312,59.8942430582,Peak_procedure,001,FB,
11,0,11,0,None,,,,,,,,,0,0,0,0,,,,,,,,,12,1,False,2.64923191071,0.8,8.2,1,0.1,,,2016_May_04_1312,59.8942430582,Peak_procedure,001,FB,
11,0,11,0,None,,,,,,,,,0,0,0,0,,,,,,,,,12,1,False,2.83280992508,0.8,8.2,1,0.1,,,2016_May_04_1312,59.8942430582,Peak_procedure,001,FB,
11,0,11,0,None,,,,,,,,,0,0,0,0,,,,,,,,,12,1,False,3.10075592995,0.8,8.2,1,0.1,,,2016_May_04_1312,59.8942430582,Peak_procedure,001,FB,
11,0,11,0,None,,,,,,,,,0,0,0,0,,,,,,,,,,,,,,,,,,,2016_May_04_1312,59.8942430582,Peak_procedure,001,FB,
11,0,11,0,None,,,,,,,,,,,,,,,,,,,,,,,,,,,,,,,2016_May_04_1312,59.8942430582,Peak_procedure,001,FB,
12,0,12,0,None,0,0,0,0,,,,,,,,,,,,,,,"['space', 'space', 'space', 'space', 'space', 'space', 'space', 'space', 'space', 'space', 'space', 'space', 'space']","[0.0002532005310058594, 0.6077160835266113, 0.7587900161743164, 0.9253389835357666, 1.0930321216583252, 1.2094621658325195, 1.4268372058868408, 1.8110220432281494, 1.9778461456298828, 2.1759390830993652, 2.7272121906280518, 2.9120640754699707, 3.681617021560669]",,,,,,,,,,,2016_May_04_1312,59.8942430582,Peak_procedure,001,FB,
12,0,12,0,None,,,,,,,,,0,0,0,0,,,,,,,,,13,1,False,0.000253200531006,-0.2,8.0,1,0.1,,,2016_May_04_1312,59.8942430582,Peak_procedure,001,FB,
12,0,12,0,None,,,,,,,,,0,0,0,0,,,,,,,,,13,1,False,0.607716083527,-0.2,8.0,1,0.1,,,2016_May_04_1312,59.8942430582,Peak_procedure,001,FB,
12,0,12,0,None,,,,,,,,,0,0,0,0,,,,,,,,,13,1,False,0.758790016174,-0.2,8.0,1,0.1,,,2016_May_04_1312,59.8942430582,Peak_procedure,001,FB,
12,0,12,0,None,,,,,,,,,0,0,0,0,,,,,,,,,13,1,False,0.925338983536,-0.2,8.0,1,0.1,,,2016_May_04_1312,59.8942430582,Peak_procedure,001,FB,
12,0,12,0,None,,,,,,,,,0,0,0,0,,,,,,,,,13,1,False,1.09303212166,-0.2,8.0,1,0.1,,,2016_May_04_1312,59.8942430582,Peak_procedure,001,FB,
12,0,12,0,None,,,,,,,,,0,0,0,0,,,,,,,,,13,1,False,1.20946216583,-0.2,8.0,1,0.1,,,2016_May_04_1312,59.8942430582,Peak_procedure,001,FB,
12,0,12,0,None,,,,,,,,,0,0,0,0,,,,,,,,,13,1,False,1.42683720589,-0.2,8.0,1,0.1,,,2016_May_04_1312,59.8942430582,Peak_procedure,001,FB,
12,0,12,0,None,,,,,,,,,0,0,0,0,,,,,,,,,13,1,False,1.81102204323,-0.2,8.0,1,0.1,,,2016_May_04_1312,59.8942430582,Peak_procedure,001,FB,
12,0,12,0,None,,,,,,,,,0,0,0,0,,,,,,,,,13,1,False,1.97784614563,-0.2,8.0,1,0.1,,,2016_May_04_1312,59.8942430582,Peak_procedure,001,FB,
12,0,12,0,None,,,,,,,,,0,0,0,0,,,,,,,,,13,1,False,2.1759390831,-0.2,8.0,1,0.1,,,2016_May_04_1312,59.8942430582,Peak_procedure,001,FB,
12,0,12,0,None,,,,,,,,,0,0,0,0,,,,,,,,,13,1,False,2.72721219063,-0.2,8.0,1,0.1,,,2016_May_04_1312,59.8942430582,Peak_procedure,001,FB,
12,0,12,0,None,,,,,,,,,0,0,0,0,,,,,,,,,13,1,False,2.91206407547,-0.2,8.0,1,0.1,,,2016_May_04_1312,59.8942430582,Peak_procedure,001,FB,
12,0,12,0,None,,,,,,,,,0,0,0,0,,,,,,,,,13,1,False,3.68161702156,-0.2,8.0,1,0.1,,,2016_May_04_1312,59.8942430582,Peak_procedure,001,FB,
12,0,12,0,None,,,,,,,,,0,0,0,0,,,,,,,,,,,,,,,,,,,2016_May_04_1312,59.8942430582,Peak_procedure,001,FB,
12,0,12,0,None,,,,,,,,,,,,,,,,,,,,,,,,,,,,,,,2016_May_04_1312,59.8942430582,Peak_procedure,001,FB,
13,0,13,0,None,0,0,0,0,,,,,,,,,,,,,,,"['space', 'space', 'space', 'space', 'space', 'space', 'space']","[0.00024700164794921875, 2.347567081451416, 2.465481996536255, 2.632319927215576, 2.798456907272339, 2.982645034790039, 3.6836190223693848]",,,,,,,,,,,2016_May_04_1312,59.8942430582,Peak_procedure,001,FB,
13,0,13,0,None,,,,,,,,,0,0,0,0,,,,,,,,,14,1,False,0.000247001647949,0.4,8.4,1,0.1,,,2016_May_04_1312,59.8942430582,Peak_procedure,001,FB,
13,0,13,0,None,,,,,,,,,0,0,0,0,,,,,,,,,14,1,False,2.34756708145,0.4,8.4,1,0.1,,,2016_May_04_1312,59.8942430582,Peak_procedure,001,FB,
13,0,13,0,None,,,,,,,,,0,0,0,0,,,,,,,,,14,1,False,2.46548199654,0.4,8.4,1,0.1,,,2016_May_04_1312,59.8942430582,Peak_procedure,001,FB,
13,0,13,0,None,,,,,,,,,0,0,0,0,,,,,,,,,14,1,False,2.63231992722,0.4,8.4,1,0.1,,,2016_May_04_1312,59.8942430582,Peak_procedure,001,FB,
13,0,13,0,None,,,,,,,,,0,0,0,0,,,,,,,,,14,1,False,2.79845690727,0.4,8.4,1,0.1,,,2016_May_04_1312,59.8942430582,Peak_procedure,001,FB,
13,0,13,0,None,,,,,,,,,0,0,0,0,,,,,,,,,14,1,False,2.98264503479,0.4,8.4,1,0.1,,,2016_May_04_1312,59.8942430582,Peak_procedure,001,FB,
13,0,13,0,None,,,,,,,,,0,0,0,0,,,,,,,,,14,1,False,3.68361902237,0.4,8.4,1,0.1,,,2016_May_04_1312,59.8942430582,Peak_procedure,001,FB,
13,0,13,0,None,,,,,,,,,0,0,0,0,,,,,,,,,,,,,,,,,,,2016_May_04_1312,59.8942430582,Peak_procedure,001,FB,
13,0,13,0,None,,,,,,,,,,,,,,,,,,,,,,,,,,,,,,,2016_May_04_1312,59.8942430582,Peak_procedure,001,FB,
14,0,14,0,None,0,0,0,0,,,,,,,,,,,,,,,"['space', 'space', 'space', 'space', 'space', 'space']","[0.0002930164337158203, 1.9929540157318115, 2.1589419841766357, 2.360063076019287, 2.49281907081604, 6.08451509475708]",,,,,,,,,,,2016_May_04_1312,59.8942430582,Peak_procedure,001,FB,
14,0,14,0,None,,,,,,,,,0,0,0,0,,,,,,,,,15,1,False,0.000293016433716,0.5,8.9,1,0.1,,,2016_May_04_1312,59.8942430582,Peak_procedure,001,FB,
14,0,14,0,None,,,,,,,,,0,0,0,0,,,,,,,,,15,1,False,1.99295401573,0.5,8.9,1,0.1,,,2016_May_04_1312,59.8942430582,Peak_procedure,001,FB,
14,0,14,0,None,,,,,,,,,0,0,0,0,,,,,,,,,15,1,False,2.15894198418,0.5,8.9,1,0.1,,,2016_May_04_1312,59.8942430582,Peak_procedure,001,FB,
14,0,14,0,None,,,,,,,,,0,0,0,0,,,,,,,,,15,1,False,2.36006307602,0.5,8.9,1,0.1,,,2016_May_04_1312,59.8942430582,Peak_procedure,001,FB,
14,0,14,0,None,,,,,,,,,0,0,0,0,,,,,,,,,15,1,False,2.49281907082,0.5,8.9,1,0.1,,,2016_May_04_1312,59.8942430582,Peak_procedure,001,FB,
14,0,14,0,None,,,,,,,,,0,0,0,0,,,,,,,,,15,1,False,6.08451509476,0.5,8.9,1,0.1,,,2016_May_04_1312,59.8942430582,Peak_procedure,001,FB,
14,0,14,0,None,,,,,,,,,0,0,0,0,,,,,,,,,,,,,,,,,,,2016_May_04_1312,59.8942430582,Peak_procedure,001,FB,
14,0,14,0,None,,,,,,,,,,,,,,,,,,,,,,,,,,,,,,,2016_May_04_1312,59.8942430582,Peak_procedure,001,FB,
15,0,15,0,None,0,0,0,0,,,,,,,,,,,,,,,"['space', 'space', 'space', 'space', 'space', 'space', 'space']","[0.0002410411834716797, 2.9145679473876953, 3.0818729400634766]",,,,,,,,,,,2016_May_04_1312,59.8942430582,Peak_procedure,001,FB,
15,0,15,0,None,,,,,,,,,0,0,0,0,,,,,,,,,16,1,False,0.000241041183472,0.8,9.7,1,0.1,,,2016_May_04_1312,59.8942430582,Peak_procedure,001,FB,
15,0,15,0,None,,,,,,,,,0,0,0,0,,,,,,,,,16,1,False,2.91456794739,0.8,9.7,1,0.1,,,2016_May_04_1312,59.8942430582,Peak_procedure,001,FB,
15,0,15,0,None,,,,,,,,,0,0,0,0,,,,,,,,,16,1,False,3.08187294006,0.8,9.7,1,0.1,,,2016_May_04_1312,59.8942430582,Peak_procedure,001,FB,
15,0,15,0,None,,,,,,,,,0,0,0,0,,,,,,,,,,,,,,,,,,,2016_May_04_1312,59.8942430582,Peak_procedure,001,FB,
15,0,15,0,None,,,,,,,,,,,,,,,,,,,,,,,,,,,,,,,2016_May_04_1312,59.8942430582,Peak_procedure,001,FB,
16,0,16,0,None,0,0,0,0,,,,,,,,,,,,,,,"['space', 'space', 'space', 'space', 'space', 'space', 'space', 'space']","[0.000247955322265625, 2.177605152130127, 2.3431780338287354, 2.510270118713379, 2.6775989532470703, 2.846112012863159, 3.180000066757202]",,,,,,,,,,,2016_May_04_1312,59.8942430582,Peak_procedure,001,FB,
16,0,16,0,None,,,,,,,,,0,0,0,0,,,,,,,,,17,1,False,0.000247955322266,0.4,10.1,1,0.1,,,2016_May_04_1312,59.8942430582,Peak_procedure,001,FB,
16,0,16,0,None,,,,,,,,,0,0,0,0,,,,,,,,,17,1,False,2.17760515213,0.4,10.1,1,0.1,,,2016_May_04_1312,59.8942430582,Peak_procedure,001,FB,
16,0,16,0,None,,,,,,,,,0,0,0,0,,,,,,,,,17,1,False,2.34317803383,0.4,10.1,1,0.1,,,2016_May_04_1312,59.8942430582,Peak_procedure,001,FB,
16,0,16,0,None,,,,,,,,,0,0,0,0,,,,,,,,,17,1,False,2.51027011871,0.4,10.1,1,0.1,,,2016_May_04_1312,59.8942430582,Peak_procedure,001,FB,
16,0,16,0,None,,,,,,,,,0,0,0,0,,,,,,,,,17,1,False,2.67759895325,0.4,10.1,1,0.1,,,2016_May_04_1312,59.8942430582,Peak_procedure,001,FB,
16,0,16,0,None,,,,,,,,,0,0,0,0,,,,,,,,,17,1,False,2.84611201286,0.4,10.1,1,0.1,,,2016_May_04_1312,59.8942430582,Peak_procedure,001,FB,
16,0,16,0,None,,,,,,,,,0,0,0,0,,,,,,,,,17,1,False,3.18000006676,0.4,10.1,1,0.1,,,2016_May_04_1312,59.8942430582,Peak_procedure,001,FB,
16,0,16,0,None,,,,,,,,,0,0,0,0,,,,,,,,,,,,,,,,,,,2016_May_04_1312,59.8942430582,Peak_procedure,001,FB,
16,0,16,0,None,,,,,,,,,,,,,,,,,,,,,,,,,,,,,,,2016_May_04_1312,59.8942430582,Peak_procedure,001,FB,
17,0,17,0,None,0,0,0,0,,,,,,,,,,,,,,,"['space', 'space', 'space', 'space', 'space', 'space', 'space', 'space']","[0.00025010108947753906, 2.0576250553131104, 2.2423698902130127, 2.408655881881714, 2.5765089988708496, 2.726314067840576, 4.7653539180755615]",,,,,,,,,,,2016_May_04_1312,59.8942430582,Peak_procedure,001,FB,
17,0,17,0,None,,,,,,,,,0,0,0,0,,,,,,,,,18,1,False,0.000250101089478,0.4,10.5,1,0.1,,,2016_May_04_1312,59.8942430582,Peak_procedure,001,FB,
17,0,17,0,None,,,,,,,,,0,0,0,0,,,,,,,,,18,1,False,2.05762505531,0.4,10.5,1,0.1,,,2016_May_04_1312,59.8942430582,Peak_procedure,001,FB,
17,0,17,0,None,,,,,,,,,0,0,0,0,,,,,,,,,18,1,False,2.24236989021,0.4,10.5,1,0.1,,,2016_May_04_1312,59.8942430582,Peak_procedure,001,FB,
17,0,17,0,None,,,,,,,,,0,0,0,0,,,,,,,,,18,1,False,2.40865588188,0.4,10.5,1,0.1,,,2016_May_04_1312,59.8942430582,Peak_procedure,001,FB,
17,0,17,0,None,,,,,,,,,0,0,0,0,,,,,,,,,18,1,False,2.57650899887,0.4,10.5,1,0.1,,,2016_May_04_1312,59.8942430582,Peak_procedure,001,FB,
17,0,17,0,None,,,,,,,,,0,0,0,0,,,,,,,,,18,1,False,2.72631406784,0.4,10.5,1,0.1,,,2016_May_04_1312,59.8942430582,Peak_procedure,001,FB,
17,0,17,0,None,,,,,,,,,0,0,0,0,,,,,,,,,18,1,False,4.76535391808,0.4,10.5,1,0.1,,,2016_May_04_1312,59.8942430582,Peak_procedure,001,FB,
17,0,17,0,None,,,,,,,,,0,0,0,0,,,,,,,,,,,,,,,,,,,2016_May_04_1312,59.8942430582,Peak_procedure,001,FB,
17,0,17,0,None,,,,,,,,,,,,,,,,,,,,,,,,,,,,,,,2016_May_04_1312,59.8942430582,Peak_procedure,001,FB,
18,0,18,0,None,0,0,0,0,,,,,,,,,,,,,,,"['space', 'space', 'space', 'space', 'space', 'space', 'space', 'space', 'space']","[0.00026106834411621094, 0.6315109729766846, 0.8170440196990967, 0.9653899669647217, 1.8031909465789795, 1.9698848724365234, 2.1359379291534424, 2.2705068588256836, 3.2567708492279053]",,,,,,,,,,,2016_May_04_1312,59.8942430582,Peak_procedure,001,FB,
18,0,18,0,None,,,,,,,,,0,0,0,0,,,,,,,,,19,1,False,0.000261068344116,0.2,10.7,1,0.1,,,2016_May_04_1312,59.8942430582,Peak_procedure,001,FB,
18,0,18,0,None,,,,,,,,,0,0,0,0,,,,,,,,,19,1,False,0.631510972977,0.2,10.7,1,0.1,,,2016_May_04_1312,59.8942430582,Peak_procedure,001,FB,
18,0,18,0,None,,,,,,,,,0,0,0,0,,,,,,,,,19,1,False,0.817044019699,0.2,10.7,1,0.1,,,2016_May_04_1312,59.8942430582,Peak_procedure,001,FB,
18,0,18,0,None,,,,,,,,,0,0,0,0,,,,,,,,,19,1,False,0.965389966965,0.2,10.7,1,0.1,,,2016_May_04_1312,59.8942430582,Peak_procedure,001,FB,
18,0,18,0,None,,,,,,,,,0,0,0,0,,,,,,,,,19,1,False,1.80319094658,0.2,10.7,1,0.1,,,2016_May_04_1312,59.8942430582,Peak_procedure,001,FB,
18,0,18,0,None,,,,,,,,,0,0,0,0,,,,,,,,,19,1,False,1.96988487244,0.2,10.7,1,0.1,,,2016_May_04_1312,59.8942430582,Peak_procedure,001,FB,
18,0,18,0,None,,,,,,,,,0,0,0,0,,,,,,,,,19,1,False,2.13593792915,0.2,10.7,1,0.1,,,2016_May_04_1312,59.8942430582,Peak_procedure,001,FB,
18,0,18,0,None,,,,,,,,,0,0,0,0,,,,,,,,,19,1,False,2.27050685883,0.2,10.7,1,0.1,,,2016_May_04_1312,59.8942430582,Peak_procedure,001,FB,
18,0,18,0,None,,,,,,,,,0,0,0,0,,,,,,,,,19,1,False,3.25677084923,0.2,10.7,1,0.1,,,2016_May_04_1312,59.8942430582,Peak_procedure,001,FB,
18,0,18,0,None,,,,,,,,,0,0,0,0,,,,,,,,,,,,,,,,,,,2016_May_04_1312,59.8942430582,Peak_procedure,001,FB,
18,0,18,0,None,,,,,,,,,,,,,,,,,,,,,,,,,,,,,,,2016_May_04_1312,59.8942430582,Peak_procedure,001,FB,
19,0,19,0,None,0,0,0,0,,,,,,,,,,,,,,,"['space', 'space', 'space', 'space', 'space']","[2.4680371284484863, 2.654689073562622, 2.820986032485962, 2.9881529808044434, 3.1554479598999023]",,,,,,,,,,,2016_May_04_1312,59.8942430582,Peak_procedure,001,FB,
19,0,19,0,None,,,,,,,,,0,0,0,0,,,,,,,,,20,1,False,2.46803712845,0.6,11.3,1,0.1,,,2016_May_04_1312,59.8942430582,Peak_procedure,001,FB,
19,0,19,0,None,,,,,,,,,0,0,0,0,,,,,,,,,20,1,False,2.65468907356,0.6,11.3,1,0.1,,,2016_May_04_1312,59.8942430582,Peak_procedure,001,FB,
19,0,19,0,None,,,,,,,,,0,0,0,0,,,,,,,,,20,1,False,2.82098603249,0.6,11.3,1,0.1,,,2016_May_04_1312,59.8942430582,Peak_procedure,001,FB,
19,0,19,0,None,,,,,,,,,0,0,0,0,,,,,,,,,20,1,False,2.9881529808,0.6,11.3,1,0.1,,,2016_May_04_1312,59.8942430582,Peak_procedure,001,FB,
19,0,19,0,None,,,,,,,,,0,0,0,0,,,,,,,,,20,1,False,3.1554479599,0.6,11.3,1,0.1,,,2016_May_04_1312,59.8942430582,Peak_procedure,001,FB,
19,0,19,0,None,,,,,,,,,0,0,0,0,,,,,,,,,,,,,,,,,,,2016_May_04_1312,59.8942430582,Peak_procedure,001,FB,
19,0,19,0,None,,,,,,,,,,,,,,,,,,,,,,,,,,,,,,,2016_May_04_1312,59.8942430582,Peak_procedure,001,FB,
20,0,20,0,None,0,0,0,0,,,,,,,,,,,,,,,"['space', 'space', 'space', 'space', 'space', 'space', 'space', 'space', 'space']","[0.00023794174194335938, 1.9467978477478027, 2.1139450073242188, 2.2812719345092773, 2.4479939937591553, 2.648253917694092, 2.8147809505462646, 2.98258900642395, 3.1661548614501953]",,,,,,,,,,,2016_May_04_1312,59.8942430582,Peak_procedure,001,FB,
20,0,20,0,None,,,,,,,,,0,0,0,0,,,,,,,,,21,1,False,0.000237941741943,0.2,11.5,1,0.1,,,2016_May_04_1312,59.8942430582,Peak_procedure,001,FB,
20,0,20,0,None,,,,,,,,,0,0,0,0,,,,,,,,,21,1,False,1.94679784775,0.2,11.5,1,0.1,,,2016_May_04_1312,59.8942430582,Peak_procedure,001,FB,
20,0,20,0,None,,,,,,,,,0,0,0,0,,,,,,,,,21,1,False,2.11394500732,0.2,11.5,1,0.1,,,2016_May_04_1312,59.8942430582,Peak_procedure,001,FB,
20,0,20,0,None,,,,,,,,,0,0,0,0,,,,,,,,,21,1,False,2.28127193451,0.2,11.5,1,0.1,,,2016_May_04_1312,59.8942430582,Peak_procedure,001,FB,
20,0,20,0,None,,,,,,,,,0,0,0,0,,,,,,,,,21,1,False,2.44799399376,0.2,11.5,1,0.1,,,2016_May_04_1312,59.8942430582,Peak_procedure,001,FB,
20,0,20,0,None,,,,,,,,,0,0,0,0,,,,,,,,,21,1,False,2.64825391769,0.2,11.5,1,0.1,,,2016_May_04_1312,59.8942430582,Peak_procedure,001,FB,
20,0,20,0,None,,,,,,,,,0,0,0,0,,,,,,,,,21,1,False,2.81478095055,0.2,11.5,1,0.1,,,2016_May_04_1312,59.8942430582,Peak_procedure,001,FB,
20,0,20,0,None,,,,,,,,,0,0,0,0,,,,,,,,,21,1,False,2.98258900642,0.2,11.5,1,0.1,,,2016_May_04_1312,59.8942430582,Peak_procedure,001,FB,
20,0,20,0,None,,,,,,,,,0,0,0,0,,,,,,,,,21,1,False,3.16615486145,0.2,11.5,1,0.1,,,2016_May_04_1312,59.8942430582,Peak_procedure,001,FB,
20,0,20,0,None,,,,,,,,,0,0,0,0,,,,,,,,,,,,,,,,,,,2016_May_04_1312,59.8942430582,Peak_procedure,001,FB,
20,0,20,0,None,,,,,,,,,,,,,,,,,,,,,,,,,,,,,,,2016_May_04_1312,59.8942430582,Peak_procedure,001,FB,
21,0,21,0,None,0,0,0,0,,,,,,,,,,,,,,,"['space', 'space', 'space', 'space', 'space', 'space']","[0.0002548694610595703, 2.5360939502716064, 2.702911853790283, 2.870100975036621, 3.036728858947754]",,,,,,,,,,,2016_May_04_1312,59.8942430582,Peak_procedure,001,FB,
21,0,21,0,None,,,,,,,,,0,0,0,0,,,,,,,,,22,1,False,0.00025486946106,0.6,12.1,1,0.1,,,2016_May_04_1312,59.8942430582,Peak_procedure,001,FB,
21,0,21,0,None,,,,,,,,,0,0,0,0,,,,,,,,,22,1,False,2.53609395027,0.6,12.1,1,0.1,,,2016_May_04_1312,59.8942430582,Peak_procedure,001,FB,
21,0,21,0,None,,,,,,,,,0,0,0,0,,,,,,,,,22,1,False,2.70291185379,0.6,12.1,1,0.1,,,2016_May_04_1312,59.8942430582,Peak_procedure,001,FB,
21,0,21,0,None,,,,,,,,,0,0,0,0,,,,,,,,,22,1,False,2.87010097504,0.6,12.1,1,0.1,,,2016_May_04_1312,59.8942430582,Peak_procedure,001,FB,
21,0,21,0,None,,,,,,,,,0,0,0,0,,,,,,,,,22,1,False,3.03672885895,0.6,12.1,1,0.1,,,2016_May_04_1312,59.8942430582,Peak_procedure,001,FB,
21,0,21,0,None,,,,,,,,,0,0,0,0,,,,,,,,,,,,,,,,,,,2016_May_04_1312,59.8942430582,Peak_procedure,001,FB,
21,0,21,0,None,,,,,,,,,,,,,,,,,,,,,,,,,,,,,,,2016_May_04_1312,59.8942430582,Peak_procedure,001,FB,
22,0,22,0,None,0,0,0,0,,,,,,,,,,,,,,,"['space', 'space', 'space', 'space', 'space', 'space']","[0.00024318695068359375, 2.422116994857788, 2.605919122695923, 2.8052279949188232, 2.9725990295410156, 3.140622138977051]",,,,,,,,,,,2016_May_04_1312,59.8942430582,Peak_procedure,001,FB,
22,0,22,0,None,,,,,,,,,0,0,0,0,,,,,,,,,23,1,False,0.000243186950684,0.5,12.6,1,0.1,,,2016_May_04_1312,59.8942430582,Peak_procedure,001,FB,
22,0,22,0,None,,,,,,,,,0,0,0,0,,,,,,,,,23,1,False,2.42211699486,0.5,12.6,1,0.1,,,2016_May_04_1312,59.8942430582,Peak_procedure,001,FB,
22,0,22,0,None,,,,,,,,,0,0,0,0,,,,,,,,,23,1,False,2.6059191227,0.5,12.6,1,0.1,,,2016_May_04_1312,59.8942430582,Peak_procedure,001,FB,
22,0,22,0,None,,,,,,,,,0,0,0,0,,,,,,,,,23,1,False,2.80522799492,0.5,12.6,1,0.1,,,2016_May_04_1312,59.8942430582,Peak_procedure,001,FB,
22,0,22,0,None,,,,,,,,,0,0,0,0,,,,,,,,,23,1,False,2.97259902954,0.5,12.6,1,0.1,,,2016_May_04_1312,59.8942430582,Peak_procedure,001,FB,
22,0,22,0,None,,,,,,,,,0,0,0,0,,,,,,,,,23,1,False,3.14062213898,0.5,12.6,1,0.1,,,2016_May_04_1312,59.8942430582,Peak_procedure,001,FB,
22,0,22,0,None,,,,,,,,,0,0,0,0,,,,,,,,,,,,,,,,,,,2016_May_04_1312,59.8942430582,Peak_procedure,001,FB,
22,0,22,0,None,,,,,,,,,,,,,,,,,,,,,,,,,,,,,,,2016_May_04_1312,59.8942430582,Peak_procedure,001,FB,
23,0,23,0,None,0,0,0,0,,,,,,,,,,,,,,,"['space', 'space', 'space', 'space', 'space', 'space', 'space', 'space', 'space', 'space']","[0.00025200843811035156, 1.7238459587097168, 1.8911869525909424, 2.0916531085968018, 2.2593650817871094, 2.4427850246429443, 2.609113931655884, 2.7759079933166504, 2.9941930770874023, 3.3922200202941895]",,,,,,,,,,,2016_May_04_1312,59.8942430582,Peak_procedure,001,FB,
23,0,23,0,None,,,,,,,,,0,0,0,0,,,,,,,,,24,1,False,0.00025200843811,0.1,12.7,1,0.1,,,2016_May_04_1312,59.8942430582,Peak_procedure,001,FB,
23,0,23,0,None,,,,,,,,,0,0,0,0,,,,,,,,,24,1,False,1.72384595871,0.1,12.7,1,0.1,,,2016_May_04_1312,59.8942430582,Peak_procedure,001,FB,
23,0,23,0,None,,,,,,,,,0,0,0,0,,,,,,,,,24,1,False,1.89118695259,0.1,12.7,1,0.1,,,2016_May_04_1312,59.8942430582,Peak_procedure,001,FB,
23,0,23,0,None,,,,,,,,,0,0,0,0,,,,,,,,,24,1,False,2.0916531086,0.1,12.7,1,0.1,,,2016_May_04_1312,59.8942430582,Peak_procedure,001,FB,
23,0,23,0,None,,,,,,,,,0,0,0,0,,,,,,,,,24,1,False,2.25936508179,0.1,12.7,1,0.1,,,2016_May_04_1312,59.8942430582,Peak_procedure,001,FB,
23,0,23,0,None,,,,,,,,,0,0,0,0,,,,,,,,,24,1,False,2.44278502464,0.1,12.7,1,0.1,,,2016_May_04_1312,59.8942430582,Peak_procedure,001,FB,
23,0,23,0,None,,,,,,,,,0,0,0,0,,,,,,,,,24,1,False,2.60911393166,0.1,12.7,1,0.1,,,2016_May_04_1312,59.8942430582,Peak_procedure,001,FB,
23,0,23,0,None,,,,,,,,,0,0,0,0,,,,,,,,,24,1,False,2.77590799332,0.1,12.7,1,0.1,,,2016_May_04_1312,59.8942430582,Peak_procedure,001,FB,
23,0,23,0,None,,,,,,,,,0,0,0,0,,,,,,,,,24,1,False,2.99419307709,0.1,12.7,1,0.1,,,2016_May_04_1312,59.8942430582,Peak_procedure,001,FB,
23,0,23,0,None,,,,,,,,,0,0,0,0,,,,,,,,,24,1,False,3.39222002029,0.1,12.7,1,0.1,,,2016_May_04_1312,59.8942430582,Peak_procedure,001,FB,
23,0,23,0,None,,,,,,,,,0,0,0,0,,,,,,,,,,,,,,,,,,,2016_May_04_1312,59.8942430582,Peak_procedure,001,FB,
23,0,23,0,None,,,,,,,,,,,,,,,,,,,,,,,,,,,,,,,2016_May_04_1312,59.8942430582,Peak_procedure,001,FB,
24,0,24,0,None,0,0,0,0,,,,,,,,,,,,,,,"['space', 'space', 'space', 'space']","[0.00024700164794921875, 2.748690128326416, 2.965017080307007, 3.132641077041626]",,,,,,,,,,,2016_May_04_1312,59.8942430582,Peak_procedure,001,FB,
24,0,24,0,None,,,,,,,,,0,0,0,0,,,,,,,,,25,1,False,0.000247001647949,0.7,13.4,1,0.1,,,2016_May_04_1312,59.8942430582,Peak_procedure,001,FB,
24,0,24,0,None,,,,,,,,,0,0,0,0,,,,,,,,,25,1,False,2.74869012833,0.7,13.4,1,0.1,,,2016_May_04_1312,59.8942430582,Peak_procedure,001,FB,
24,0,24,0,None,,,,,,,,,0,0,0,0,,,,,,,,,25,1,False,2.96501708031,0.7,13.4,1,0.1,,,2016_May_04_1312,59.8942430582,Peak_procedure,001,FB,
24,0,24,0,None,,,,,,,,,0,0,0,0,,,,,,,,,25,1,False,3.13264107704,0.7,13.4,1,0.1,,,2016_May_04_1312,59.8942430582,Peak_procedure,001,FB,
24,0,24,0,None,,,,,,,,,0,0,0,0,,,,,,,,,,,,,,,,,,,2016_May_04_1312,59.8942430582,Peak_procedure,001,FB,
24,0,24,0,None,,,,,,,,,,,,,,,,,,,,,,,,,,,,,,,2016_May_04_1312,59.8942430582,Peak_procedure,001,FB,
25,0,25,0,None,0,0,0,0,,,,,,,,,,,,,,,"['space', 'space', 'space']","[0.00024700164794921875, 35.319659948349]",,,,,,,,,,,2016_May_04_1312,59.8942430582,Peak_procedure,001,FB,
25,0,25,0,None,,,,,,,,,0,0,0,0,,,,,,,,,26,1,False,0.000247001647949,0.9,14.3,1,0.1,,,2016_May_04_1312,59.8942430582,Peak_procedure,001,FB,
25,0,25,0,None,,,,,,,,,0,0,0,0,,,,,,,,,26,1,False,35.3196599483,0.9,14.3,1,0.1,,,2016_May_04_1312,59.8942430582,Peak_procedure,001,FB,
25,0,25,0,None,,,,,,,,,0,0,0,0,,,,,,,,,,,,,,,,,,,2016_May_04_1312,59.8942430582,Peak_procedure,001,FB,
25,0,25,0,None,,,,,,,,,,,,,,,,,,,,,,,,,,,,,,,2016_May_04_1312,59.8942430582,Peak_procedure,001,FB,
26,0,26,0,None,0,0,0,0,,,,,,,,,,,,,,,"['space', 'space', 'space', 'space']","[2.3971879482269287, 2.7472920417785645, 2.9473860263824463, 3.133064031600952]",,,,,,,,,,,2016_May_04_1312,59.8942430582,Peak_procedure,001,FB,
26,0,26,0,None,,,,,,,,,0,0,0,0,,,,,,,,,27,1,False,2.39718794823,0.7,15.0,1,0.1,,,2016_May_04_1312,59.8942430582,Peak_procedure,001,FB,
26,0,26,0,None,,,,,,,,,0,0,0,0,,,,,,,,,27,1,False,2.74729204178,0.7,15.0,1,0.1,,,2016_May_04_1312,59.8942430582,Peak_procedure,001,FB,
26,0,26,0,None,,,,,,,,,0,0,0,0,,,,,,,,,27,1,False,2.94738602638,0.7,15.0,1,0.1,,,2016_May_04_1312,59.8942430582,Peak_procedure,001,FB,
26,0,26,0,None,,,,,,,,,0,0,0,0,,,,,,,,,27,1,False,3.1330640316,0.7,15.0,1,0.1,,,2016_May_04_1312,59.8942430582,Peak_procedure,001,FB,
26,0,26,0,None,,,,,,,,,0,0,0,0,,,,,,,,,,,,,,,,,,,2016_May_04_1312,59.8942430582,Peak_procedure,001,FB,
26,0,26,0,None,,,,,,,,,,,,,,,,,,,,,,,,,,,,,,,2016_May_04_1312,59.8942430582,Peak_procedure,001,FB,
27,0,27,0,None,0,0,0,0,,,,,,,,,,,,,,,"['space', 'space', 'space', 'space', 'space', 'space']","[0.00033402442932128906, 2.2526180744171143, 2.485013008117676, 2.7366349697113037, 2.9715311527252197, 3.2369589805603027]",,,,,,,,,,,2016_May_04_1312,59.8942430582,Peak_procedure,001,FB,
27,0,27,0,None,,,,,,,,,0,0,0,0,,,,,,,,,28,1,False,0.000334024429321,0.5,15.5,1,0.1,,,2016_May_04_1312,59.8942430582,Peak_procedure,001,FB,
27,0,27,0,None,,,,,,,,,0,0,0,0,,,,,,,,,28,1,False,2.25261807442,0.5,15.5,1,0.1,,,2016_May_04_1312,59.8942430582,Peak_procedure,001,FB,
27,0,27,0,None,,,,,,,,,0,0,0,0,,,,,,,,,28,1,False,2.48501300812,0.5,15.5,1,0.1,,,2016_May_04_1312,59.8942430582,Peak_procedure,001,FB,
27,0,27,0,None,,,,,,,,,0,0,0,0,,,,,,,,,28,1,False,2.73663496971,0.5,15.5,1,0.1,,,2016_May_04_1312,59.8942430582,Peak_procedure,001,FB,
27,0,27,0,None,,,,,,,,,0,0,0,0,,,,,,,,,28,1,False,2.97153115273,0.5,15.5,1,0.1,,,2016_May_04_1312,59.8942430582,Peak_procedure,001,FB,
27,0,27,0,None,,,,,,,,,0,0,0,0,,,,,,,,,28,1,False,3.23695898056,0.5,15.5,1,0.1,,,2016_May_04_1312,59.8942430582,Peak_procedure,001,FB,
27,0,27,0,None,,,,,,,,,0,0,0,0,,,,,,,,,,,,,,,,,,,2016_May_04_1312,59.8942430582,Peak_procedure,001,FB,
27,0,27,0,None,,,,,,,,,,,,,,,,,,,,,,,,,,,,,,,2016_May_04_1312,59.8942430582,Peak_procedure,001,FB,
28,0,28,0,None,,,,,0,0,0,0,,,,,,,,,,,,,,,,,,,,,"['space', 'space', 'space', 'space', 'space', 'space', 'space', 'space', 'space', 'space', 'space', 'space', 'space']","[0.0002689361572265625, 4.013516902923584, 4.231738090515137, 4.465253114700317, 4.698261022567749, 4.949975967407227, 5.182919979095459, 5.451476097106934, 5.715680122375488, 5.967674970626831, 6.236051082611084, 6.503366947174072, 6.771014928817749]",2016_May_04_1312,59.8942430582,Peak_procedure,001,FB,
28,0,28,0,None,,,,,,,,,0,0,0,0,,,,,,,,,29,0,True,0.000268936157227,-1.3,14.2,1,0.1,,,2016_May_04_1312,59.8942430582,Peak_procedure,001,FB,
28,0,28,0,None,,,,,,,,,0,0,0,0,,,,,,,,,29,0,True,4.01351690292,-1.3,14.2,1,0.1,,,2016_May_04_1312,59.8942430582,Peak_procedure,001,FB,
28,0,28,0,None,,,,,,,,,0,0,0,0,,,,,,,,,29,0,True,4.23173809052,-1.3,14.2,1,0.1,,,2016_May_04_1312,59.8942430582,Peak_procedure,001,FB,
28,0,28,0,None,,,,,,,,,0,0,0,0,,,,,,,,,29,0,True,4.4652531147,-1.3,14.2,1,0.1,,,2016_May_04_1312,59.8942430582,Peak_procedure,001,FB,
28,0,28,0,None,,,,,,,,,0,0,0,0,,,,,,,,,29,0,True,4.69826102257,-1.3,14.2,1,0.1,,,2016_May_04_1312,59.8942430582,Peak_procedure,001,FB,
28,0,28,0,None,,,,,,,,,0,0,0,0,,,,,,,,,29,0,True,4.94997596741,-1.3,14.2,1,0.1,,,2016_May_04_1312,59.8942430582,Peak_procedure,001,FB,
28,0,28,0,None,,,,,,,,,0,0,0,0,,,,,,,,,29,0,True,5.1829199791,-1.3,14.2,1,0.1,,,2016_May_04_1312,59.8942430582,Peak_procedure,001,FB,
28,0,28,0,None,,,,,,,,,0,0,0,0,,,,,,,,,29,0,True,5.45147609711,-1.3,14.2,1,0.1,,,2016_May_04_1312,59.8942430582,Peak_procedure,001,FB,
28,0,28,0,None,,,,,,,,,0,0,0,0,,,,,,,,,29,0,True,5.71568012238,-1.3,14.2,1,0.1,,,2016_May_04_1312,59.8942430582,Peak_procedure,001,FB,
28,0,28,0,None,,,,,,,,,0,0,0,0,,,,,,,,,29,0,True,5.96767497063,-1.3,14.2,1,0.1,,,2016_May_04_1312,59.8942430582,Peak_procedure,001,FB,
28,0,28,0,None,,,,,,,,,0,0,0,0,,,,,,,,,29,0,True,6.23605108261,-1.3,14.2,1,0.1,,,2016_May_04_1312,59.8942430582,Peak_procedure,001,FB,
28,0,28,0,None,,,,,,,,,0,0,0,0,,,,,,,,,29,0,True,6.50336694717,-1.3,14.2,1,0.1,,,2016_May_04_1312,59.8942430582,Peak_procedure,001,FB,
28,0,28,0,None,,,,,,,,,0,0,0,0,,,,,,,,,29,0,True,6.77101492882,-1.3,14.2,1,0.1,,,2016_May_04_1312,59.8942430582,Peak_procedure,001,FB,
28,0,28,0,None,,,,,,,,,0,0,0,0,,,,,,,,,,,,,,,,,,,2016_May_04_1312,59.8942430582,Peak_procedure,001,FB,
28,0,28,0,None,,,,,,,,,,,,,,,,,,,,,,,,,,,,,,,2016_May_04_1312,59.8942430582,Peak_procedure,001,FB,
29,0,29,0,None,,,,,0,0,0,0,,,,,,,,,,,,,,,,,,,,,"['space', 'space', 'space', 'space', 'space', 'space', 'space', 'space', 'space']","[2.910125970840454, 3.1433870792388916, 3.3766531944274902, 3.6435580253601074, 3.9105710983276367, 4.176319122314453, 4.428670167922974, 4.679918050765991, 4.929506063461304]",2016_May_04_1312,59.8942430582,Peak_procedure,001,FB,
29,0,29,0,None,,,,,,,,,0,0,0,0,,,,,,,,,30,0,True,2.91012597084,-0.9,13.3,1,0.1,,,2016_May_04_1312,59.8942430582,Peak_procedure,001,FB,
29,0,29,0,None,,,,,,,,,0,0,0,0,,,,,,,,,30,0,True,3.14338707924,-0.9,13.3,1,0.1,,,2016_May_04_1312,59.8942430582,Peak_procedure,001,FB,
29,0,29,0,None,,,,,,,,,0,0,0,0,,,,,,,,,30,0,True,3.37665319443,-0.9,13.3,1,0.1,,,2016_May_04_1312,59.8942430582,Peak_procedure,001,FB,
29,0,29,0,None,,,,,,,,,0,0,0,0,,,,,,,,,30,0,True,3.64355802536,-0.9,13.3,1,0.1,,,2016_May_04_1312,59.8942430582,Peak_procedure,001,FB,
29,0,29,0,None,,,,,,,,,0,0,0,0,,,,,,,,,30,0,True,3.91057109833,-0.9,13.3,1,0.1,,,2016_May_04_1312,59.8942430582,Peak_procedure,001,FB,
29,0,29,0,None,,,,,,,,,0,0,0,0,,,,,,,,,30,0,True,4.17631912231,-0.9,13.3,1,0.1,,,2016_May_04_1312,59.8942430582,Peak_procedure,001,FB,
29,0,29,0,None,,,,,,,,,0,0,0,0,,,,,,,,,30,0,True,4.42867016792,-0.9,13.3,1,0.1,,,2016_May_04_1312,59.8942430582,Peak_procedure,001,FB,
29,0,29,0,None,,,,,,,,,0,0,0,0,,,,,,,,,30,0,True,4.67991805077,-0.9,13.3,1,0.1,,,2016_May_04_1312,59.8942430582,Peak_procedure,001,FB,
29,0,29,0,None,,,,,,,,,0,0,0,0,,,,,,,,,30,0,True,4.92950606346,-0.9,13.3,1,0.1,,,2016_May_04_1312,59.8942430582,Peak_procedure,001,FB,
29,0,29,0,None,,,,,,,,,0,0,0,0,,,,,,,,,,,,,,,,,,,2016_May_04_1312,59.8942430582,Peak_procedure,001,FB,
29,0,29,0,None,,,,,,,,,,,,,,,,,,,,,,,,,,,,,,,2016_May_04_1312,59.8942430582,Peak_procedure,001,FB,
30,0,30,0,None,,,,,0,0,0,0,,,,,,,,,,,,,,,,,,,,,"['space', 'space', 'space', 'space', 'space', 'space', 'space']","[2.392457962036133, 2.725353956222534, 3.0600979328155518, 3.3779349327087402, 3.6618080139160156, 5.9332709312438965, 6.149580001831055]",2016_May_04_1312,59.8942430582,Peak_procedure,001,FB,
30,0,30,0,None,,,,,,,,,0,0,0,0,,,,,,,,,31,0,True,2.39245796204,-0.7,12.6,1,0.1,,,2016_May_04_1312,59.8942430582,Peak_procedure,001,FB,
30,0,30,0,None,,,,,,,,,0,0,0,0,,,,,,,,,31,0,True,2.72535395622,-0.7,12.6,1,0.1,,,2016_May_04_1312,59.8942430582,Peak_procedure,001,FB,
30,0,30,0,None,,,,,,,,,0,0,0,0,,,,,,,,,31,0,True,3.06009793282,-0.7,12.6,1,0.1,,,2016_May_04_1312,59.8942430582,Peak_procedure,001,FB,
30,0,30,0,None,,,,,,,,,0,0,0,0,,,,,,,,,31,0,True,3.37793493271,-0.7,12.6,1,0.1,,,2016_May_04_1312,59.8942430582,Peak_procedure,001,FB,
30,0,30,0,None,,,,,,,,,0,0,0,0,,,,,,,,,31,0,True,3.66180801392,-0.7,12.6,1,0.1,,,2016_May_04_1312,59.8942430582,Peak_procedure,001,FB,
30,0,30,0,None,,,,,,,,,0,0,0,0,,,,,,,,,31,0,True,5.93327093124,-0.7,12.6,1,0.1,,,2016_May_04_1312,59.8942430582,Peak_procedure,001,FB,
30,0,30,0,None,,,,,,,,,0,0,0,0,,,,,,,,,31,0,True,6.14958000183,-0.7,12.6,1,0.1,,,2016_May_04_1312,59.8942430582,Peak_procedure,001,FB,
30,0,30,0,None,,,,,,,,,0,0,0,0,,,,,,,,,,,,,,,,,,,2016_May_04_1312,59.8942430582,Peak_procedure,001,FB,
30,0,30,0,None,,,,,,,,,,,,,,,,,,,,,,,,,,,,,,,2016_May_04_1312,59.8942430582,Peak_procedure,001,FB,
31,0,31,0,None,,,,,0,0,0,0,,,,,,,,,,,,,,,,,,,,,"['space', 'space', 'space', 'space', 'space', 'space', 'space', 'space', 'space']","[1.938817024230957, 2.508025884628296, 2.9585530757904053, 3.3256139755249023, 3.659796953201294, 3.9932820796966553, 5.998427867889404, 6.246514081954956, 6.482338905334473]",2016_May_04_1312,59.8942430582,Peak_procedure,001,FB,
31,0,31,0,None,,,,,,,,,0,0,0,0,,,,,,,,,32,0,True,1.93881702423,-0.9,11.7,1,0.1,,,2016_May_04_1312,59.8942430582,Peak_procedure,001,FB,
31,0,31,0,None,,,,,,,,,0,0,0,0,,,,,,,,,32,0,True,2.50802588463,-0.9,11.7,1,0.1,,,2016_May_04_1312,59.8942430582,Peak_procedure,001,FB,
31,0,31,0,None,,,,,,,,,0,0,0,0,,,,,,,,,32,0,True,2.95855307579,-0.9,11.7,1,0.1,,,2016_May_04_1312,59.8942430582,Peak_procedure,001,FB,
31,0,31,0,None,,,,,,,,,0,0,0,0,,,,,,,,,32,0,True,3.32561397552,-0.9,11.7,1,0.1,,,2016_May_04_1312,59.8942430582,Peak_procedure,001,FB,
31,0,31,0,None,,,,,,,,,0,0,0,0,,,,,,,,,32,0,True,3.6597969532,-0.9,11.7,1,0.1,,,2016_May_04_1312,59.8942430582,Peak_procedure,001,FB,
31,0,31,0,None,,,,,,,,,0,0,0,0,,,,,,,,,32,0,True,3.9932820797,-0.9,11.7,1,0.1,,,2016_May_04_1312,59.8942430582,Peak_procedure,001,FB,
31,0,31,0,None,,,,,,,,,0,0,0,0,,,,,,,,,32,0,True,5.99842786789,-0.9,11.7,1,0.1,,,2016_May_04_1312,59.8942430582,Peak_procedure,001,FB,
31,0,31,0,None,,,,,,,,,0,0,0,0,,,,,,,,,32,0,True,6.24651408195,-0.9,11.7,1,0.1,,,2016_May_04_1312,59.8942430582,Peak_procedure,001,FB,
31,0,31,0,None,,,,,,,,,0,0,0,0,,,,,,,,,32,0,True,6.48233890533,-0.9,11.7,1,0.1,,,2016_May_04_1312,59.8942430582,Peak_procedure,001,FB,
31,0,31,0,None,,,,,,,,,0,0,0,0,,,,,,,,,,,,,,,,,,,2016_May_04_1312,59.8942430582,Peak_procedure,001,FB,
31,0,31,0,None,,,,,,,,,,,,,,,,,,,,,,,,,,,,,,,2016_May_04_1312,59.8942430582,Peak_procedure,001,FB,
32,0,32,0,None,0,0,0,0,,,,,,,,,,,,,,,"['space', 'space', 'space']","[2.5625619888305664, 2.7789018154144287, 3.0141518115997314]",,,,,,,,,,,2016_May_04_1312,59.8942430582,Peak_procedure,001,FB,
32,0,32,0,None,,,,,,,,,0,0,0,0,,,,,,,,,33,1,False,2.56256198883,0.8,12.5,1,0.1,,,2016_May_04_1312,59.8942430582,Peak_procedure,001,FB,
32,0,32,0,None,,,,,,,,,0,0,0,0,,,,,,,,,33,1,False,2.77890181541,0.8,12.5,1,0.1,,,2016_May_04_1312,59.8942430582,Peak_procedure,001,FB,
32,0,32,0,None,,,,,,,,,0,0,0,0,,,,,,,,,33,1,False,3.0141518116,0.8,12.5,1,0.1,,,2016_May_04_1312,59.8942430582,Peak_procedure,001,FB,
32,0,32,0,None,,,,,,,,,0,0,0,0,,,,,,,,,,,,,,,,,,,2016_May_04_1312,59.8942430582,Peak_procedure,001,FB,
32,0,32,0,None,,,,,,,,,,,,,,,,,,,,,,,,,,,,,,,2016_May_04_1312,59.8942430582,Peak_procedure,001,FB,
33,0,33,0,None,,,,,0,0,0,0,,,,,,,,,,,,,,,,,,,,,"['space', 'space', 'space', 'space', 'space', 'space', 'space', 'space', 'space', 'space']","[0.0002799034118652344, 2.576140880584717, 2.829041004180908, 3.0772500038146973, 3.2941489219665527, 3.496246814727783, 3.747828960418701, 3.981421947479248, 4.215031862258911, 4.466315984725952]",2016_May_04_1312,59.8942430582,Peak_procedure,001,FB,
33,0,33,0,None,,,,,,,,,0,0,0,0,,,,,,,,,34,0,True,0.000279903411865,-1.0,11.5,1,0.1,,,2016_May_04_1312,59.8942430582,Peak_procedure,001,FB,
33,0,33,0,None,,,,,,,,,0,0,0,0,,,,,,,,,34,0,True,2.57614088058,-1.0,11.5,1,0.1,,,2016_May_04_1312,59.8942430582,Peak_procedure,001,FB,
33,0,33,0,None,,,,,,,,,0,0,0,0,,,,,,,,,34,0,True,2.82904100418,-1.0,11.5,1,0.1,,,2016_May_04_1312,59.8942430582,Peak_procedure,001,FB,
33,0,33,0,None,,,,,,,,,0,0,0,0,,,,,,,,,34,0,True,3.07725000381,-1.0,11.5,1,0.1,,,2016_May_04_1312,59.8942430582,Peak_procedure,001,FB,
33,0,33,0,None,,,,,,,,,0,0,0,0,,,,,,,,,34,0,True,3.29414892197,-1.0,11.5,1,0.1,,,2016_May_04_1312,59.8942430582,Peak_procedure,001,FB,
33,0,33,0,None,,,,,,,,,0,0,0,0,,,,,,,,,34,0,True,3.49624681473,-1.0,11.5,1,0.1,,,2016_May_04_1312,59.8942430582,Peak_procedure,001,FB,
33,0,33,0,None,,,,,,,,,0,0,0,0,,,,,,,,,34,0,True,3.74782896042,-1.0,11.5,1,0.1,,,2016_May_04_1312,59.8942430582,Peak_procedure,001,FB,
33,0,33,0,None,,,,,,,,,0,0,0,0,,,,,,,,,34,0,True,3.98142194748,-1.0,11.5,1,0.1,,,2016_May_04_1312,59.8942430582,Peak_procedure,001,FB,
33,0,33,0,None,,,,,,,,,0,0,0,0,,,,,,,,,34,0,True,4.21503186226,-1.0,11.5,1,0.1,,,2016_May_04_1312,59.8942430582,Peak_procedure,001,FB,
33,0,33,0,None,,,,,,,,,0,0,0,0,,,,,,,,,34,0,True,4.46631598473,-1.0,11.5,1,0.1,,,2016_May_04_1312,59.8942430582,Peak_procedure,001,FB,
33,0,33,0,None,,,,,,,,,0,0,0,0,,,,,,,,,,,,,,,,,,,2016_May_04_1312,59.8942430582,Peak_procedure,001,FB,
33,0,33,0,None,,,,,,,,,,,,,,,,,,,,,,,,,,,,,,,2016_May_04_1312,59.8942430582,Peak_procedure,001,FB,
34,0,34,0,None,,,,,0,0,0,0,,,,,,,,,,,,,,,,,,,,,"['space', 'space', 'space', 'space', 'space', 'space', 'space', 'space', 'space', 'space', 'space', 'space']","[1.9498190879821777, 2.184951066970825, 2.3689091205596924, 2.618565082550049, 2.802669048309326, 3.019942045211792, 3.2530441284179688, 3.5043389797210693, 3.7204670906066895, 3.972332000732422, 4.188261032104492, 4.487094163894653]",2016_May_04_1312,59.8942430582,Peak_procedure,001,FB,
34,0,34,0,None,,,,,,,,,0,0,0,0,,,,,,,,,35,0,True,1.94981908798,-1.2,10.3,1,0.1,,,2016_May_04_1312,59.8942430582,Peak_procedure,001,FB,
34,0,34,0,None,,,,,,,,,0,0,0,0,,,,,,,,,35,0,True,2.18495106697,-1.2,10.3,1,0.1,,,2016_May_04_1312,59.8942430582,Peak_procedure,001,FB,
34,0,34,0,None,,,,,,,,,0,0,0,0,,,,,,,,,35,0,True,2.36890912056,-1.2,10.3,1,0.1,,,2016_May_04_1312,59.8942430582,Peak_procedure,001,FB,
34,0,34,0,None,,,,,,,,,0,0,0,0,,,,,,,,,35,0,True,2.61856508255,-1.2,10.3,1,0.1,,,2016_May_04_1312,59.8942430582,Peak_procedure,001,FB,
34,0,34,0,None,,,,,,,,,0,0,0,0,,,,,,,,,35,0,True,2.80266904831,-1.2,10.3,1,0.1,,,2016_May_04_1312,59.8942430582,Peak_procedure,001,FB,
34,0,34,0,None,,,,,,,,,0,0,0,0,,,,,,,,,35,0,True,3.01994204521,-1.2,10.3,1,0.1,,,2016_May_04_1312,59.8942430582,Peak_procedure,001,FB,
34,0,34,0,None,,,,,,,,,0,0,0,0,,,,,,,,,35,0,True,3.25304412842,-1.2,10.3,1,0.1,,,2016_May_04_1312,59.8942430582,Peak_procedure,001,FB,
34,0,34,0,None,,,,,,,,,0,0,0,0,,,,,,,,,35,0,True,3.50433897972,-1.2,10.3,1,0.1,,,2016_May_04_1312,59.8942430582,Peak_procedure,001,FB,
34,0,34,0,None,,,,,,,,,0,0,0,0,,,,,,,,,35,0,True,3.72046709061,-1.2,10.3,1,0.1,,,2016_May_04_1312,59.8942430582,Peak_procedure,001,FB,
34,0,34,0,None,,,,,,,,,0,0,0,0,,,,,,,,,35,0,True,3.97233200073,-1.2,10.3,1,0.1,,,2016_May_04_1312,59.8942430582,Peak_procedure,001,FB,
34,0,34,0,None,,,,,,,,,0,0,0,0,,,,,,,,,35,0,True,4.1882610321,-1.2,10.3,1,0.1,,,2016_May_04_1312,59.8942430582,Peak_procedure,001,FB,
34,0,34,0,None,,,,,,,,,0,0,0,0,,,,,,,,,35,0,True,4.48709416389,-1.2,10.3,1,0.1,,,2016_May_04_1312,59.8942430582,Peak_procedure,001,FB,
34,0,34,0,None,,,,,,,,,0,0,0,0,,,,,,,,,,,,,,,,,,,2016_May_04_1312,59.8942430582,Peak_procedure,001,FB,
34,0,34,0,None,,,,,,,,,,,,,,,,,,,,,,,,,,,,,,,2016_May_04_1312,59.8942430582,Peak_procedure,001,FB,
35,0,35,0,None,0,0,0,0,,,,,,,,,,,,,,,['space'],[3.112963914871216],,,,,,,,,,,2016_May_04_1312,59.8942430582,Peak_procedure,001,FB,
35,0,35,0,None,,,,,,,,,0,0,0,0,,,,,,,,,36,1,False,3.11296391487,1,11.3,1,0.1,,,2016_May_04_1312,59.8942430582,Peak_procedure,001,FB,
35,0,35,0,None,,,,,,,,,0,0,0,0,,,,,,,,,,,,,,,,,,,2016_May_04_1312,59.8942430582,Peak_procedure,001,FB,
35,0,35,0,None,,,,,,,,,,,,,,,,,,,,,,,,,,,,,,,2016_May_04_1312,59.8942430582,Peak_procedure,001,FB,
36,0,36,0,None,,,,,0,0,0,0,,,,,,,,,,,,,,,,,,,,,"['space', 'space', 'space', 'space', 'space', 'space', 'space', 'space', 'space', 'space', 'space', 'space']","[0.00026106834411621094, 3.0786070823669434, 3.3267080783843994, 3.5132410526275635, 3.730208158493042, 3.9470951557159424, 4.180633068084717, 4.398216009140015, 4.631679058074951, 4.848510980606079, 5.116537094116211]",2016_May_04_1312,59.8942430582,Peak_procedure,001,FB,
36,0,36,0,None,,,,,,,,,0,0,0,0,,,,,,,,,37,0,True,0.000261068344116,-1.1,10.2,1,0.1,,,2016_May_04_1312,59.8942430582,Peak_procedure,001,FB,
36,0,36,0,None,,,,,,,,,0,0,0,0,,,,,,,,,37,0,True,3.07860708237,-1.1,10.2,1,0.1,,,2016_May_04_1312,59.8942430582,Peak_procedure,001,FB,
36,0,36,0,None,,,,,,,,,0,0,0,0,,,,,,,,,37,0,True,3.32670807838,-1.1,10.2,1,0.1,,,2016_May_04_1312,59.8942430582,Peak_procedure,001,FB,
36,0,36,0,None,,,,,,,,,0,0,0,0,,,,,,,,,37,0,True,3.51324105263,-1.1,10.2,1,0.1,,,2016_May_04_1312,59.8942430582,Peak_procedure,001,FB,
36,0,36,0,None,,,,,,,,,0,0,0,0,,,,,,,,,37,0,True,3.73020815849,-1.1,10.2,1,0.1,,,2016_May_04_1312,59.8942430582,Peak_procedure,001,FB,
36,0,36,0,None,,,,,,,,,0,0,0,0,,,,,,,,,37,0,True,3.94709515572,-1.1,10.2,1,0.1,,,2016_May_04_1312,59.8942430582,Peak_procedure,001,FB,
36,0,36,0,None,,,,,,,,,0,0,0,0,,,,,,,,,37,0,True,4.18063306808,-1.1,10.2,1,0.1,,,2016_May_04_1312,59.8942430582,Peak_procedure,001,FB,
36,0,36,0,None,,,,,,,,,0,0,0,0,,,,,,,,,37,0,True,4.39821600914,-1.1,10.2,1,0.1,,,2016_May_04_1312,59.8942430582,Peak_procedure,001,FB,
36,0,36,0,None,,,,,,,,,0,0,0,0,,,,,,,,,37,0,True,4.63167905807,-1.1,10.2,1,0.1,,,2016_May_04_1312,59.8942430582,Peak_procedure,001,FB,
36,0,36,0,None,,,,,,,,,0,0,0,0,,,,,,,,,37,0,True,4.84851098061,-1.1,10.2,1,0.1,,,2016_May_04_1312,59.8942430582,Peak_procedure,001,FB,
36,0,36,0,None,,,,,,,,,0,0,0,0,,,,,,,,,37,0,True,5.11653709412,-1.1,10.2,1,0.1,,,2016_May_04_1312,59.8942430582,Peak_procedure,001,FB,
36,0,36,0,None,,,,,,,,,0,0,0,0,,,,,,,,,,,,,,,,,,,2016_May_04_1312,59.8942430582,Peak_procedure,001,FB,
36,0,36,0,None,,,,,,,,,,,,,,,,,,,,,,,,,,,,,,,2016_May_04_1312,59.8942430582,Peak_procedure,001,FB,
37,0,37,0,None,0,0,0,0,,,,,,,,,,,,,,,"['space', 'space', 'space']","[2.6695871353149414, 2.9036691188812256, 3.1207070350646973]",,,,,,,,,,,2016_May_04_1312,59.8942430582,Peak_procedure,001,FB,
37,0,37,0,None,,,,,,,,,0,0,0,0,,,,,,,,,38,1,False,2.66958713531,0.8,11.0,1,0.1,,,2016_May_04_1312,59.8942430582,Peak_procedure,001,FB,
37,0,37,0,None,,,,,,,,,0,0,0,0,,,,,,,,,38,1,False,2.90366911888,0.8,11.0,1,0.1,,,2016_May_04_1312,59.8942430582,Peak_procedure,001,FB,
37,0,37,0,None,,,,,,,,,0,0,0,0,,,,,,,,,38,1,False,3.12070703506,0.8,11.0,1,0.1,,,2016_May_04_1312,59.8942430582,Peak_procedure,001,FB,
37,0,37,0,None,,,,,,,,,0,0,0,0,,,,,,,,,,,,,,,,,,,2016_May_04_1312,59.8942430582,Peak_procedure,001,FB,
37,0,37,0,None,,,,,,,,,,,,,,,,,,,,,,,,,,,,,,,2016_May_04_1312,59.8942430582,Peak_procedure,001,FB,
