trials.thisRepN,trials.thisTrialN,trials.thisN,trials.thisIndex,trials.thisTrial,Fixed_Interval_Loop.thisRepN,Fixed_Interval_Loop.thisTrialN,Fixed_Interval_Loop.thisN,Fixed_Interval_Loop.thisIndex,Peak_Interval_Loop.thisRepN,Peak_Interval_Loop.thisTrialN,Peak_Interval_Loop.thisN,Peak_Interval_Loop.thisIndex,feedback_Loop.thisRepN,feedback_Loop.thisTrialN,feedback_Loop.thisN,feedback_Loop.thisIndex,Break_Loop.thisRepN,Break_Loop.thisTrialN,Break_Loop.thisN,Break_Loop.thisIndex,instructions_key.keys,instructions_key.rt,fixed_response.keys,fixed_response.rt,trial_number,is_fi_trial,is_pi_trial,response_time,score,total_score,reward,cost,peak_response.keys,peak_response.rt,date,frameRate,expName,session,participant,
,,,,,,,,,,,,,,,,,,,,,space,5.29917907715,,,,,,,,,,,,,2016_May_04_1318,59.8462146517,Peak_procedure,002,FB,
0,0,0,0,None,0,0,0,0,,,,,,,,,,,,,,,"['space', 'space', 'space']","[2.6826491355895996, 2.865885019302368, 3.0831000804901123]",,,,,,,,,,,2016_May_04_1318,59.8462146517,Peak_procedure,002,FB,
0,0,0,0,None,,,,,,,,,0,0,0,0,,,,,,,,,1,1,False,2.68264913559,0.8,0.8,1,0.1,,,2016_May_04_1318,59.8462146517,Peak_procedure,002,FB,
0,0,0,0,None,,,,,,,,,0,0,0,0,,,,,,,,,1,1,False,2.8658850193,0.8,0.8,1,0.1,,,2016_May_04_1318,59.8462146517,Peak_procedure,002,FB,
0,0,0,0,None,,,,,,,,,0,0,0,0,,,,,,,,,1,1,False,3.08310008049,0.8,0.8,1,0.1,,,2016_May_04_1318,59.8462146517,Peak_procedure,002,FB,
0,0,0,0,None,,,,,,,,,0,0,0,0,,,,,,,,,,,,,,,,,,,2016_May_04_1318,59.8462146517,Peak_procedure,002,FB,
0,0,0,0,None,,,,,,,,,,,,,,,,,,,,,,,,,,,,,,,2016_May_04_1318,59.8462146517,Peak_procedure,002,FB,
1,0,1,0,None,0,0,0,0,,,,,,,,,,,,,,,"['space', 'space', 'space', 'space', 'space', 'space', 'space']","[0.00023818016052246094, 2.336683988571167, 2.537051200866699, 2.7542450428009033, 2.971457004547119, 3.188314199447632]",,,,,,,,,,,2016_May_04_1318,59.8462146517,Peak_procedure,002,FB,
1,0,1,0,None,,,,,,,,,0,0,0,0,,,,,,,,,2,1,False,0.000238180160522,0.5,1.3,1,0.1,,,2016_May_04_1318,59.8462146517,Peak_procedure,002,FB,
1,0,1,0,None,,,,,,,,,0,0,0,0,,,,,,,,,2,1,False,2.33668398857,0.5,1.3,1,0.1,,,2016_May_04_1318,59.8462146517,Peak_procedure,002,FB,
1,0,1,0,None,,,,,,,,,0,0,0,0,,,,,,,,,2,1,False,2.53705120087,0.5,1.3,1,0.1,,,2016_May_04_1318,59.8462146517,Peak_procedure,002,FB,
1,0,1,0,None,,,,,,,,,0,0,0,0,,,,,,,,,2,1,False,2.7542450428,0.5,1.3,1,0.1,,,2016_May_04_1318,59.8462146517,Peak_procedure,002,FB,
1,0,1,0,None,,,,,,,,,0,0,0,0,,,,,,,,,2,1,False,2.97145700455,0.5,1.3,1,0.1,,,2016_May_04_1318,59.8462146517,Peak_procedure,002,FB,
1,0,1,0,None,,,,,,,,,0,0,0,0,,,,,,,,,2,1,False,3.18831419945,0.5,1.3,1,0.1,,,2016_May_04_1318,59.8462146517,Peak_procedure,002,FB,
1,0,1,0,None,,,,,,,,,0,0,0,0,,,,,,,,,,,,,,,,,,,2016_May_04_1318,59.8462146517,Peak_procedure,002,FB,
1,0,1,0,None,,,,,,,,,,,,,,,,,,,,,,,,,,,,,,,2016_May_04_1318,59.8462146517,Peak_procedure,002,FB,
2,0,2,0,None,0,0,0,0,,,,,,,,,,,,,,,"['space', 'space']","[0.0002510547637939453, 3.0554280281066895]",,,,,,,,,,,2016_May_04_1318,59.8462146517,Peak_procedure,002,FB,
2,0,2,0,None,,,,,,,,,0,0,0,0,,,,,,,,,3,1,False,0.000251054763794,0.9,2.2,1,0.1,,,2016_May_04_1318,59.8462146517,Peak_procedure,002,FB,
2,0,2,0,None,,,,,,,,,0,0,0,0,,,,,,,,,3,1,False,3.05542802811,0.9,2.2,1,0.1,,,2016_May_04_1318,59.8462146517,Peak_procedure,002,FB,
2,0,2,0,None,,,,,,,,,0,0,0,0,,,,,,,,,,,,,,,,,,,2016_May_04_1318,59.8462146517,Peak_procedure,002,FB,
2,0,2,0,None,,,,,,,,,,,,,,,,,,,,,,,,,,,,,,,2016_May_04_1318,59.8462146517,Peak_procedure,002,FB,
3,0,3,0,None,0,0,0,0,,,,,,,,,,,,,,,"['space', 'space', 'space', 'space', 'space', 'space']","[0.0005121231079101562, 2.221529006958008, 2.438643217086792, 2.6223950386047363, 2.822873115539551, 3.0399880409240723]",,,,,,,,,,,2016_May_04_1318,59.8462146517,Peak_procedure,002,FB,
3,0,3,0,None,,,,,,,,,0,0,0,0,,,,,,,,,4,1,False,0.00051212310791,0.5,2.7,1,0.1,,,2016_May_04_1318,59.8462146517,Peak_procedure,002,FB,
3,0,3,0,None,,,,,,,,,0,0,0,0,,,,,,,,,4,1,False,2.22152900696,0.5,2.7,1,0.1,,,2016_May_04_1318,59.8462146517,Peak_procedure,002,FB,
3,0,3,0,None,,,,,,,,,0,0,0,0,,,,,,,,,4,1,False,2.43864321709,0.5,2.7,1,0.1,,,2016_May_04_1318,59.8462146517,Peak_procedure,002,FB,
3,0,3,0,None,,,,,,,,,0,0,0,0,,,,,,,,,4,1,False,2.6223950386,0.5,2.7,1,0.1,,,2016_May_04_1318,59.8462146517,Peak_procedure,002,FB,
3,0,3,0,None,,,,,,,,,0,0,0,0,,,,,,,,,4,1,False,2.82287311554,0.5,2.7,1,0.1,,,2016_May_04_1318,59.8462146517,Peak_procedure,002,FB,
3,0,3,0,None,,,,,,,,,0,0,0,0,,,,,,,,,4,1,False,3.03998804092,0.5,2.7,1,0.1,,,2016_May_04_1318,59.8462146517,Peak_procedure,002,FB,
3,0,3,0,None,,,,,,,,,0,0,0,0,,,,,,,,,,,,,,,,,,,2016_May_04_1318,59.8462146517,Peak_procedure,002,FB,
3,0,3,0,None,,,,,,,,,,,,,,,,,,,,,,,,,,,,,,,2016_May_04_1318,59.8462146517,Peak_procedure,002,FB,
4,0,4,0,None,0,0,0,0,,,,,,,,,,,,,,,"['space', 'space']","[0.00025010108947753906, 3.349001884460449]",,,,,,,,,,,2016_May_04_1318,59.8462146517,Peak_procedure,002,FB,
4,0,4,0,None,,,,,,,,,0,0,0,0,,,,,,,,,5,1,False,0.000250101089478,0.9,3.6,1,0.1,,,2016_May_04_1318,59.8462146517,Peak_procedure,002,FB,
4,0,4,0,None,,,,,,,,,0,0,0,0,,,,,,,,,5,1,False,3.34900188446,0.9,3.6,1,0.1,,,2016_May_04_1318,59.8462146517,Peak_procedure,002,FB,
4,0,4,0,None,,,,,,,,,0,0,0,0,,,,,,,,,,,,,,,,,,,2016_May_04_1318,59.8462146517,Peak_procedure,002,FB,
4,0,4,0,None,,,,,,,,,,,,,,,,,,,,,,,,,,,,,,,2016_May_04_1318,59.8462146517,Peak_procedure,002,FB,
5,0,5,0,None,0,0,0,0,,,,,,,,,,,,,,,"['space', 'space', 'space', 'space', 'space', 'space', 'space', 'space']","[0.00024199485778808594, 1.9792470932006836, 2.2135090827941895, 2.4636600017547607, 2.680882215499878, 2.9146502017974854, 3.148442029953003]",,,,,,,,,,,2016_May_04_1318,59.8462146517,Peak_procedure,002,FB,
5,0,5,0,None,,,,,,,,,0,0,0,0,,,,,,,,,6,1,False,0.000241994857788,0.4,4.0,1,0.1,,,2016_May_04_1318,59.8462146517,Peak_procedure,002,FB,
5,0,5,0,None,,,,,,,,,0,0,0,0,,,,,,,,,6,1,False,1.9792470932,0.4,4.0,1,0.1,,,2016_May_04_1318,59.8462146517,Peak_procedure,002,FB,
5,0,5,0,None,,,,,,,,,0,0,0,0,,,,,,,,,6,1,False,2.21350908279,0.4,4.0,1,0.1,,,2016_May_04_1318,59.8462146517,Peak_procedure,002,FB,
5,0,5,0,None,,,,,,,,,0,0,0,0,,,,,,,,,6,1,False,2.46366000175,0.4,4.0,1,0.1,,,2016_May_04_1318,59.8462146517,Peak_procedure,002,FB,
5,0,5,0,None,,,,,,,,,0,0,0,0,,,,,,,,,6,1,False,2.6808822155,0.4,4.0,1,0.1,,,2016_May_04_1318,59.8462146517,Peak_procedure,002,FB,
5,0,5,0,None,,,,,,,,,0,0,0,0,,,,,,,,,6,1,False,2.9146502018,0.4,4.0,1,0.1,,,2016_May_04_1318,59.8462146517,Peak_procedure,002,FB,
5,0,5,0,None,,,,,,,,,0,0,0,0,,,,,,,,,6,1,False,3.14844202995,0.4,4.0,1,0.1,,,2016_May_04_1318,59.8462146517,Peak_procedure,002,FB,
5,0,5,0,None,,,,,,,,,0,0,0,0,,,,,,,,,,,,,,,,,,,2016_May_04_1318,59.8462146517,Peak_procedure,002,FB,
5,0,5,0,None,,,,,,,,,,,,,,,,,,,,,,,,,,,,,,,2016_May_04_1318,59.8462146517,Peak_procedure,002,FB,
6,0,6,0,None,0,0,0,0,,,,,,,,,,,,,,,"['space', 'space', 'space', 'space', 'space', 'space', 'space', 'space']","[0.0002498626708984375, 1.656440019607544, 1.892970085144043, 2.1103460788726807, 2.293828010559082, 2.5418519973754883, 2.777606964111328, 3.5621349811553955]",,,,,,,,,,,2016_May_04_1318,59.8462146517,Peak_procedure,002,FB,
6,0,6,0,None,,,,,,,,,0,0,0,0,,,,,,,,,7,1,False,0.000249862670898,0.3,4.3,1,0.1,,,2016_May_04_1318,59.8462146517,Peak_procedure,002,FB,
6,0,6,0,None,,,,,,,,,0,0,0,0,,,,,,,,,7,1,False,1.65644001961,0.3,4.3,1,0.1,,,2016_May_04_1318,59.8462146517,Peak_procedure,002,FB,
6,0,6,0,None,,,,,,,,,0,0,0,0,,,,,,,,,7,1,False,1.89297008514,0.3,4.3,1,0.1,,,2016_May_04_1318,59.8462146517,Peak_procedure,002,FB,
6,0,6,0,None,,,,,,,,,0,0,0,0,,,,,,,,,7,1,False,2.11034607887,0.3,4.3,1,0.1,,,2016_May_04_1318,59.8462146517,Peak_procedure,002,FB,
6,0,6,0,None,,,,,,,,,0,0,0,0,,,,,,,,,7,1,False,2.29382801056,0.3,4.3,1,0.1,,,2016_May_04_1318,59.8462146517,Peak_procedure,002,FB,
6,0,6,0,None,,,,,,,,,0,0,0,0,,,,,,,,,7,1,False,2.54185199738,0.3,4.3,1,0.1,,,2016_May_04_1318,59.8462146517,Peak_procedure,002,FB,
6,0,6,0,None,,,,,,,,,0,0,0,0,,,,,,,,,7,1,False,2.77760696411,0.3,4.3,1,0.1,,,2016_May_04_1318,59.8462146517,Peak_procedure,002,FB,
6,0,6,0,None,,,,,,,,,0,0,0,0,,,,,,,,,7,1,False,3.56213498116,0.3,4.3,1,0.1,,,2016_May_04_1318,59.8462146517,Peak_procedure,002,FB,
6,0,6,0,None,,,,,,,,,0,0,0,0,,,,,,,,,,,,,,,,,,,2016_May_04_1318,59.8462146517,Peak_procedure,002,FB,
6,0,6,0,None,,,,,,,,,,,,,,,,,,,,,,,,,,,,,,,2016_May_04_1318,59.8462146517,Peak_procedure,002,FB,
7,0,7,0,None,0,0,0,0,,,,,,,,,,,,,,,"['space', 'space', 'space']","[2.7673351764678955, 2.9704790115356445, 3.1873810291290283]",,,,,,,,,,,2016_May_04_1318,59.8462146517,Peak_procedure,002,FB,
7,0,7,0,None,,,,,,,,,0,0,0,0,,,,,,,,,8,1,False,2.76733517647,0.8,5.1,1,0.1,,,2016_May_04_1318,59.8462146517,Peak_procedure,002,FB,
7,0,7,0,None,,,,,,,,,0,0,0,0,,,,,,,,,8,1,False,2.97047901154,0.8,5.1,1,0.1,,,2016_May_04_1318,59.8462146517,Peak_procedure,002,FB,
7,0,7,0,None,,,,,,,,,0,0,0,0,,,,,,,,,8,1,False,3.18738102913,0.8,5.1,1,0.1,,,2016_May_04_1318,59.8462146517,Peak_procedure,002,FB,
7,0,7,0,None,,,,,,,,,0,0,0,0,,,,,,,,,,,,,,,,,,,2016_May_04_1318,59.8462146517,Peak_procedure,002,FB,
7,0,7,0,None,,,,,,,,,,,,,,,,,,,,,,,,,,,,,,,2016_May_04_1318,59.8462146517,Peak_procedure,002,FB,
8,0,8,0,None,0,0,0,0,,,,,,,,,,,,,,,"['space', 'space', 'space']","[0.00023984909057617188, 3.759913921356201]",,,,,,,,,,,2016_May_04_1318,59.8462146517,Peak_procedure,002,FB,
8,0,8,0,None,,,,,,,,,0,0,0,0,,,,,,,,,9,1,False,0.000239849090576,0.9,6.0,1,0.1,,,2016_May_04_1318,59.8462146517,Peak_procedure,002,FB,
8,0,8,0,None,,,,,,,,,0,0,0,0,,,,,,,,,9,1,False,3.75991392136,0.9,6.0,1,0.1,,,2016_May_04_1318,59.8462146517,Peak_procedure,002,FB,
8,0,8,0,None,,,,,,,,,0,0,0,0,,,,,,,,,,,,,,,,,,,2016_May_04_1318,59.8462146517,Peak_procedure,002,FB,
8,0,8,0,None,,,,,,,,,,,,,,,,,,,,,,,,,,,,,,,2016_May_04_1318,59.8462146517,Peak_procedure,002,FB,
9,0,9,0,None,0,0,0,0,,,,,,,,,,,,,,,"['space', 'space', 'space', 'space', 'space', 'space', 'space', 'space', 'space']","[0.00025582313537597656, 2.6491479873657227, 2.8828978538513184, 3.0998170375823975]",,,,,,,,,,,2016_May_04_1318,59.8462146517,Peak_procedure,002,FB,
9,0,9,0,None,,,,,,,,,0,0,0,0,,,,,,,,,10,1,False,0.000255823135376,0.7,6.7,1,0.1,,,2016_May_04_1318,59.8462146517,Peak_procedure,002,FB,
9,0,9,0,None,,,,,,,,,0,0,0,0,,,,,,,,,10,1,False,2.64914798737,0.7,6.7,1,0.1,,,2016_May_04_1318,59.8462146517,Peak_procedure,002,FB,
9,0,9,0,None,,,,,,,,,0,0,0,0,,,,,,,,,10,1,False,2.88289785385,0.7,6.7,1,0.1,,,2016_May_04_1318,59.8462146517,Peak_procedure,002,FB,
9,0,9,0,None,,,,,,,,,0,0,0,0,,,,,,,,,10,1,False,3.09981703758,0.7,6.7,1,0.1,,,2016_May_04_1318,59.8462146517,Peak_procedure,002,FB,
9,0,9,0,None,,,,,,,,,0,0,0,0,,,,,,,,,,,,,,,,,,,2016_May_04_1318,59.8462146517,Peak_procedure,002,FB,
9,0,9,0,None,,,,,,,,,,,,,,,,,,,,,,,,,,,,,,,2016_May_04_1318,59.8462146517,Peak_procedure,002,FB,
10,0,10,0,None,0,0,0,0,,,,,,,,,,,,,,,"['space', 'space', 'space', 'space', 'space']","[0.0002541542053222656, 2.3765130043029785, 2.6435999870300293, 2.8773951530456543, 3.127932071685791]",,,,,,,,,,,2016_May_04_1318,59.8462146517,Peak_procedure,002,FB,
10,0,10,0,None,,,,,,,,,0,0,0,0,,,,,,,,,11,1,False,0.000254154205322,0.6,7.3,1,0.1,,,2016_May_04_1318,59.8462146517,Peak_procedure,002,FB,
10,0,10,0,None,,,,,,,,,0,0,0,0,,,,,,,,,11,1,False,2.3765130043,0.6,7.3,1,0.1,,,2016_May_04_1318,59.8462146517,Peak_procedure,002,FB,
10,0,10,0,None,,,,,,,,,0,0,0,0,,,,,,,,,11,1,False,2.64359998703,0.6,7.3,1,0.1,,,2016_May_04_1318,59.8462146517,Peak_procedure,002,FB,
10,0,10,0,None,,,,,,,,,0,0,0,0,,,,,,,,,11,1,False,2.87739515305,0.6,7.3,1,0.1,,,2016_May_04_1318,59.8462146517,Peak_procedure,002,FB,
10,0,10,0,None,,,,,,,,,0,0,0,0,,,,,,,,,11,1,False,3.12793207169,0.6,7.3,1,0.1,,,2016_May_04_1318,59.8462146517,Peak_procedure,002,FB,
10,0,10,0,None,,,,,,,,,0,0,0,0,,,,,,,,,,,,,,,,,,,2016_May_04_1318,59.8462146517,Peak_procedure,002,FB,
10,0,10,0,None,,,,,,,,,,,,,,,,,,,,,,,,,,,,,,,2016_May_04_1318,59.8462146517,Peak_procedure,002,FB,
11,0,11,0,None,0,0,0,0,,,,,,,,,,,,,,,"['space', 'space']","[0.0002589225769042969, 3.757974863052368]",,,,,,,,,,,2016_May_04_1318,59.8462146517,Peak_procedure,002,FB,
11,0,11,0,None,,,,,,,,,0,0,0,0,,,,,,,,,12,1,False,0.000258922576904,0.9,8.2,1,0.1,,,2016_May_04_1318,59.8462146517,Peak_procedure,002,FB,
11,0,11,0,None,,,,,,,,,0,0,0,0,,,,,,,,,12,1,False,3.75797486305,0.9,8.2,1,0.1,,,2016_May_04_1318,59.8462146517,Peak_procedure,002,FB,
11,0,11,0,None,,,,,,,,,0,0,0,0,,,,,,,,,,,,,,,,,,,2016_May_04_1318,59.8462146517,Peak_procedure,002,FB,
11,0,11,0,None,,,,,,,,,,,,,,,,,,,,,,,,,,,,,,,2016_May_04_1318,59.8462146517,Peak_procedure,002,FB,
12,0,12,0,None,0,0,0,0,,,,,,,,,,,,,,,"['space', 'space', 'space', 'space', 'space']","[0.00025010108947753906, 2.6178860664367676, 2.8517279624938965, 3.084968090057373]",,,,,,,,,,,2016_May_04_1318,59.8462146517,Peak_procedure,002,FB,
12,0,12,0,None,,,,,,,,,0,0,0,0,,,,,,,,,13,1,False,0.000250101089478,0.7,8.9,1,0.1,,,2016_May_04_1318,59.8462146517,Peak_procedure,002,FB,
12,0,12,0,None,,,,,,,,,0,0,0,0,,,,,,,,,13,1,False,2.61788606644,0.7,8.9,1,0.1,,,2016_May_04_1318,59.8462146517,Peak_procedure,002,FB,
12,0,12,0,None,,,,,,,,,0,0,0,0,,,,,,,,,13,1,False,2.85172796249,0.7,8.9,1,0.1,,,2016_May_04_1318,59.8462146517,Peak_procedure,002,FB,
12,0,12,0,None,,,,,,,,,0,0,0,0,,,,,,,,,13,1,False,3.08496809006,0.7,8.9,1,0.1,,,2016_May_04_1318,59.8462146517,Peak_procedure,002,FB,
12,0,12,0,None,,,,,,,,,0,0,0,0,,,,,,,,,,,,,,,,,,,2016_May_04_1318,59.8462146517,Peak_procedure,002,FB,
12,0,12,0,None,,,,,,,,,,,,,,,,,,,,,,,,,,,,,,,2016_May_04_1318,59.8462146517,Peak_procedure,002,FB,
13,0,13,0,None,0,0,0,0,,,,,,,,,,,,,,,"['space', 'space', 'space', 'space', 'space', 'space', 'space']","[0.0002529621124267578, 2.0598390102386475, 2.3260087966918945, 2.560654878616333, 2.828125, 3.1122968196868896]",,,,,,,,,,,2016_May_04_1318,59.8462146517,Peak_procedure,002,FB,
13,0,13,0,None,,,,,,,,,0,0,0,0,,,,,,,,,14,1,False,0.000252962112427,0.5,9.4,1,0.1,,,2016_May_04_1318,59.8462146517,Peak_procedure,002,FB,
13,0,13,0,None,,,,,,,,,0,0,0,0,,,,,,,,,14,1,False,2.05983901024,0.5,9.4,1,0.1,,,2016_May_04_1318,59.8462146517,Peak_procedure,002,FB,
13,0,13,0,None,,,,,,,,,0,0,0,0,,,,,,,,,14,1,False,2.32600879669,0.5,9.4,1,0.1,,,2016_May_04_1318,59.8462146517,Peak_procedure,002,FB,
13,0,13,0,None,,,,,,,,,0,0,0,0,,,,,,,,,14,1,False,2.56065487862,0.5,9.4,1,0.1,,,2016_May_04_1318,59.8462146517,Peak_procedure,002,FB,
13,0,13,0,None,,,,,,,,,0,0,0,0,,,,,,,,,14,1,False,2.828125,0.5,9.4,1,0.1,,,2016_May_04_1318,59.8462146517,Peak_procedure,002,FB,
13,0,13,0,None,,,,,,,,,0,0,0,0,,,,,,,,,14,1,False,3.11229681969,0.5,9.4,1,0.1,,,2016_May_04_1318,59.8462146517,Peak_procedure,002,FB,
13,0,13,0,None,,,,,,,,,0,0,0,0,,,,,,,,,,,,,,,,,,,2016_May_04_1318,59.8462146517,Peak_procedure,002,FB,
13,0,13,0,None,,,,,,,,,,,,,,,,,,,,,,,,,,,,,,,2016_May_04_1318,59.8462146517,Peak_procedure,002,FB,
14,0,14,0,None,0,0,0,0,,,,,,,,,,,,,,,"['space', 'space']","[0.00024890899658203125, 3.3231749534606934]",,,,,,,,,,,2016_May_04_1318,59.8462146517,Peak_procedure,002,FB,
14,0,14,0,None,,,,,,,,,0,0,0,0,,,,,,,,,15,1,False,0.000248908996582,0.9,10.3,1,0.1,,,2016_May_04_1318,59.8462146517,Peak_procedure,002,FB,
14,0,14,0,None,,,,,,,,,0,0,0,0,,,,,,,,,15,1,False,3.32317495346,0.9,10.3,1,0.1,,,2016_May_04_1318,59.8462146517,Peak_procedure,002,FB,
14,0,14,0,None,,,,,,,,,0,0,0,0,,,,,,,,,,,,,,,,,,,2016_May_04_1318,59.8462146517,Peak_procedure,002,FB,
14,0,14,0,None,,,,,,,,,,,,,,,,,,,,,,,,,,,,,,,2016_May_04_1318,59.8462146517,Peak_procedure,002,FB,
15,0,15,0,None,0,0,0,0,,,,,,,,,,,,,,,"['space', 'space', 'space']","[0.0002579689025878906, 3.4213340282440186]",,,,,,,,,,,2016_May_04_1318,59.8462146517,Peak_procedure,002,FB,
15,0,15,0,None,,,,,,,,,0,0,0,0,,,,,,,,,16,1,False,0.000257968902588,0.9,11.2,1,0.1,,,2016_May_04_1318,59.8462146517,Peak_procedure,002,FB,
15,0,15,0,None,,,,,,,,,0,0,0,0,,,,,,,,,16,1,False,3.42133402824,0.9,11.2,1,0.1,,,2016_May_04_1318,59.8462146517,Peak_procedure,002,FB,
15,0,15,0,None,,,,,,,,,0,0,0,0,,,,,,,,,,,,,,,,,,,2016_May_04_1318,59.8462146517,Peak_procedure,002,FB,
15,0,15,0,None,,,,,,,,,,,,,,,,,,,,,,,,,,,,,,,2016_May_04_1318,59.8462146517,Peak_procedure,002,FB,
16,0,16,0,None,0,0,0,0,,,,,,,,,,,,,,,"['space', 'space', 'space', 'space', 'space']","[0.0002579689025878906, 2.638218879699707, 2.890375852584839, 3.1069979667663574]",,,,,,,,,,,2016_May_04_1318,59.8462146517,Peak_procedure,002,FB,
16,0,16,0,None,,,,,,,,,0,0,0,0,,,,,,,,,17,1,False,0.000257968902588,0.7,11.9,1,0.1,,,2016_May_04_1318,59.8462146517,Peak_procedure,002,FB,
16,0,16,0,None,,,,,,,,,0,0,0,0,,,,,,,,,17,1,False,2.6382188797,0.7,11.9,1,0.1,,,2016_May_04_1318,59.8462146517,Peak_procedure,002,FB,
16,0,16,0,None,,,,,,,,,0,0,0,0,,,,,,,,,17,1,False,2.89037585258,0.7,11.9,1,0.1,,,2016_May_04_1318,59.8462146517,Peak_procedure,002,FB,
16,0,16,0,None,,,,,,,,,0,0,0,0,,,,,,,,,17,1,False,3.10699796677,0.7,11.9,1,0.1,,,2016_May_04_1318,59.8462146517,Peak_procedure,002,FB,
16,0,16,0,None,,,,,,,,,0,0,0,0,,,,,,,,,,,,,,,,,,,2016_May_04_1318,59.8462146517,Peak_procedure,002,FB,
16,0,16,0,None,,,,,,,,,,,,,,,,,,,,,,,,,,,,,,,2016_May_04_1318,59.8462146517,Peak_procedure,002,FB,
17,0,17,0,None,0,0,0,0,,,,,,,,,,,,,,,"['space', 'space', 'space', 'space', 'space', 'space', 'space']","[0.00025200843811035156, 1.7402410507202148, 1.989241123199463, 2.2250890731811523, 2.458937168121338, 2.7074830532073975, 3.0107359886169434]",,,,,,,,,,,2016_May_04_1318,59.8462146517,Peak_procedure,002,FB,
17,0,17,0,None,,,,,,,,,0,0,0,0,,,,,,,,,18,1,False,0.00025200843811,0.4,12.3,1,0.1,,,2016_May_04_1318,59.8462146517,Peak_procedure,002,FB,
17,0,17,0,None,,,,,,,,,0,0,0,0,,,,,,,,,18,1,False,1.74024105072,0.4,12.3,1,0.1,,,2016_May_04_1318,59.8462146517,Peak_procedure,002,FB,
17,0,17,0,None,,,,,,,,,0,0,0,0,,,,,,,,,18,1,False,1.9892411232,0.4,12.3,1,0.1,,,2016_May_04_1318,59.8462146517,Peak_procedure,002,FB,
17,0,17,0,None,,,,,,,,,0,0,0,0,,,,,,,,,18,1,False,2.22508907318,0.4,12.3,1,0.1,,,2016_May_04_1318,59.8462146517,Peak_procedure,002,FB,
17,0,17,0,None,,,,,,,,,0,0,0,0,,,,,,,,,18,1,False,2.45893716812,0.4,12.3,1,0.1,,,2016_May_04_1318,59.8462146517,Peak_procedure,002,FB,
17,0,17,0,None,,,,,,,,,0,0,0,0,,,,,,,,,18,1,False,2.70748305321,0.4,12.3,1,0.1,,,2016_May_04_1318,59.8462146517,Peak_procedure,002,FB,
17,0,17,0,None,,,,,,,,,0,0,0,0,,,,,,,,,18,1,False,3.01073598862,0.4,12.3,1,0.1,,,2016_May_04_1318,59.8462146517,Peak_procedure,002,FB,
17,0,17,0,None,,,,,,,,,0,0,0,0,,,,,,,,,,,,,,,,,,,2016_May_04_1318,59.8462146517,Peak_procedure,002,FB,
17,0,17,0,None,,,,,,,,,,,,,,,,,,,,,,,,,,,,,,,2016_May_04_1318,59.8462146517,Peak_procedure,002,FB,
18,0,18,0,None,0,0,0,0,,,,,,,,,,,,,,,"['space', 'space', 'space', 'space', 'space', 'space', 'space', 'space', 'space']","[0.0002491474151611328, 1.5436980724334717, 1.7914910316467285, 1.9946110248565674, 2.244807004928589, 2.4799749851226807, 2.6956381797790527, 2.92889404296875, 3.1471500396728516]",,,,,,,,,,,2016_May_04_1318,59.8462146517,Peak_procedure,002,FB,
18,0,18,0,None,,,,,,,,,0,0,0,0,,,,,,,,,19,1,False,0.000249147415161,0.2,12.5,1,0.1,,,2016_May_04_1318,59.8462146517,Peak_procedure,002,FB,
18,0,18,0,None,,,,,,,,,0,0,0,0,,,,,,,,,19,1,False,1.54369807243,0.2,12.5,1,0.1,,,2016_May_04_1318,59.8462146517,Peak_procedure,002,FB,
18,0,18,0,None,,,,,,,,,0,0,0,0,,,,,,,,,19,1,False,1.79149103165,0.2,12.5,1,0.1,,,2016_May_04_1318,59.8462146517,Peak_procedure,002,FB,
18,0,18,0,None,,,,,,,,,0,0,0,0,,,,,,,,,19,1,False,1.99461102486,0.2,12.5,1,0.1,,,2016_May_04_1318,59.8462146517,Peak_procedure,002,FB,
18,0,18,0,None,,,,,,,,,0,0,0,0,,,,,,,,,19,1,False,2.24480700493,0.2,12.5,1,0.1,,,2016_May_04_1318,59.8462146517,Peak_procedure,002,FB,
18,0,18,0,None,,,,,,,,,0,0,0,0,,,,,,,,,19,1,False,2.47997498512,0.2,12.5,1,0.1,,,2016_May_04_1318,59.8462146517,Peak_procedure,002,FB,
18,0,18,0,None,,,,,,,,,0,0,0,0,,,,,,,,,19,1,False,2.69563817978,0.2,12.5,1,0.1,,,2016_May_04_1318,59.8462146517,Peak_procedure,002,FB,
18,0,18,0,None,,,,,,,,,0,0,0,0,,,,,,,,,19,1,False,2.92889404297,0.2,12.5,1,0.1,,,2016_May_04_1318,59.8462146517,Peak_procedure,002,FB,
18,0,18,0,None,,,,,,,,,0,0,0,0,,,,,,,,,19,1,False,3.14715003967,0.2,12.5,1,0.1,,,2016_May_04_1318,59.8462146517,Peak_procedure,002,FB,
18,0,18,0,None,,,,,,,,,0,0,0,0,,,,,,,,,,,,,,,,,,,2016_May_04_1318,59.8462146517,Peak_procedure,002,FB,
18,0,18,0,None,,,,,,,,,,,,,,,,,,,,,,,,,,,,,,,2016_May_04_1318,59.8462146517,Peak_procedure,002,FB,
19,0,19,0,None,0,0,0,0,,,,,,,,,,,,,,,"['space', 'space', 'space', 'space', 'space', 'space']","[0.000247955322265625, 2.204875946044922, 2.4710919857025146, 2.706204891204834, 2.939323902130127, 3.190124034881592]",,,,,,,,,,,2016_May_04_1318,59.8462146517,Peak_procedure,002,FB,
19,0,19,0,None,,,,,,,,,0,0,0,0,,,,,,,,,20,1,False,0.000247955322266,0.5,13.0,1,0.1,,,2016_May_04_1318,59.8462146517,Peak_procedure,002,FB,
19,0,19,0,None,,,,,,,,,0,0,0,0,,,,,,,,,20,1,False,2.20487594604,0.5,13.0,1,0.1,,,2016_May_04_1318,59.8462146517,Peak_procedure,002,FB,
19,0,19,0,None,,,,,,,,,0,0,0,0,,,,,,,,,20,1,False,2.4710919857,0.5,13.0,1,0.1,,,2016_May_04_1318,59.8462146517,Peak_procedure,002,FB,
19,0,19,0,None,,,,,,,,,0,0,0,0,,,,,,,,,20,1,False,2.7062048912,0.5,13.0,1,0.1,,,2016_May_04_1318,59.8462146517,Peak_procedure,002,FB,
19,0,19,0,None,,,,,,,,,0,0,0,0,,,,,,,,,20,1,False,2.93932390213,0.5,13.0,1,0.1,,,2016_May_04_1318,59.8462146517,Peak_procedure,002,FB,
19,0,19,0,None,,,,,,,,,0,0,0,0,,,,,,,,,20,1,False,3.19012403488,0.5,13.0,1,0.1,,,2016_May_04_1318,59.8462146517,Peak_procedure,002,FB,
19,0,19,0,None,,,,,,,,,0,0,0,0,,,,,,,,,,,,,,,,,,,2016_May_04_1318,59.8462146517,Peak_procedure,002,FB,
19,0,19,0,None,,,,,,,,,,,,,,,,,,,,,,,,,,,,,,,2016_May_04_1318,59.8462146517,Peak_procedure,002,FB,
20,0,20,0,None,0,0,0,0,,,,,,,,,,,,,,,"['space', 'space', 'space', 'space', 'space', 'space', 'space', 'space', 'space']","[0.0002582073211669922, 2.3283770084381104, 2.5427191257476807, 2.7598021030426025, 2.963088035583496, 3.21335506439209]",,,,,,,,,,,2016_May_04_1318,59.8462146517,Peak_procedure,002,FB,
20,0,20,0,None,,,,,,,,,0,0,0,0,,,,,,,,,21,1,False,0.000258207321167,0.5,13.5,1,0.1,,,2016_May_04_1318,59.8462146517,Peak_procedure,002,FB,
20,0,20,0,None,,,,,,,,,0,0,0,0,,,,,,,,,21,1,False,2.32837700844,0.5,13.5,1,0.1,,,2016_May_04_1318,59.8462146517,Peak_procedure,002,FB,
20,0,20,0,None,,,,,,,,,0,0,0,0,,,,,,,,,21,1,False,2.54271912575,0.5,13.5,1,0.1,,,2016_May_04_1318,59.8462146517,Peak_procedure,002,FB,
20,0,20,0,None,,,,,,,,,0,0,0,0,,,,,,,,,21,1,False,2.75980210304,0.5,13.5,1,0.1,,,2016_May_04_1318,59.8462146517,Peak_procedure,002,FB,
20,0,20,0,None,,,,,,,,,0,0,0,0,,,,,,,,,21,1,False,2.96308803558,0.5,13.5,1,0.1,,,2016_May_04_1318,59.8462146517,Peak_procedure,002,FB,
20,0,20,0,None,,,,,,,,,0,0,0,0,,,,,,,,,21,1,False,3.21335506439,0.5,13.5,1,0.1,,,2016_May_04_1318,59.8462146517,Peak_procedure,002,FB,
20,0,20,0,None,,,,,,,,,0,0,0,0,,,,,,,,,,,,,,,,,,,2016_May_04_1318,59.8462146517,Peak_procedure,002,FB,
20,0,20,0,None,,,,,,,,,,,,,,,,,,,,,,,,,,,,,,,2016_May_04_1318,59.8462146517,Peak_procedure,002,FB,
21,0,21,0,None,0,0,0,0,,,,,,,,,,,,,,,"['space', 'space', 'space', 'space']","[0.000247955322265625, 2.4375979900360107, 2.685697078704834, 3.1393001079559326]",,,,,,,,,,,2016_May_04_1318,59.8462146517,Peak_procedure,002,FB,
21,0,21,0,None,,,,,,,,,0,0,0,0,,,,,,,,,22,1,False,0.000247955322266,0.7,14.2,1,0.1,,,2016_May_04_1318,59.8462146517,Peak_procedure,002,FB,
21,0,21,0,None,,,,,,,,,0,0,0,0,,,,,,,,,22,1,False,2.43759799004,0.7,14.2,1,0.1,,,2016_May_04_1318,59.8462146517,Peak_procedure,002,FB,
21,0,21,0,None,,,,,,,,,0,0,0,0,,,,,,,,,22,1,False,2.6856970787,0.7,14.2,1,0.1,,,2016_May_04_1318,59.8462146517,Peak_procedure,002,FB,
21,0,21,0,None,,,,,,,,,0,0,0,0,,,,,,,,,22,1,False,3.13930010796,0.7,14.2,1,0.1,,,2016_May_04_1318,59.8462146517,Peak_procedure,002,FB,
21,0,21,0,None,,,,,,,,,0,0,0,0,,,,,,,,,,,,,,,,,,,2016_May_04_1318,59.8462146517,Peak_procedure,002,FB,
21,0,21,0,None,,,,,,,,,,,,,,,,,,,,,,,,,,,,,,,2016_May_04_1318,59.8462146517,Peak_procedure,002,FB,
22,0,22,0,None,,,,,0,0,0,0,,,,,,,,,,,,,,,,,,,,,"['space', 'space', 'space', 'space', 'space', 'space', 'space', 'space', 'space', 'space', 'space', 'space', 'space', 'space']","[0.00030612945556640625, 2.259079933166504, 2.507107973098755, 2.7099809646606445, 2.96048903465271, 3.1776320934295654, 3.3922791481018066, 3.6276559829711914, 3.861938953399658, 4.062900066375732, 4.2964770793914795, 4.5139360427856445, 4.731058120727539, 4.965201139450073]",2016_May_04_1318,59.8462146517,Peak_procedure,002,FB,
22,0,22,0,None,,,,,,,,,0,0,0,0,,,,,,,,,23,0,True,0.000306129455566,-1.4,12.8,1,0.1,,,2016_May_04_1318,59.8462146517,Peak_procedure,002,FB,
22,0,22,0,None,,,,,,,,,0,0,0,0,,,,,,,,,23,0,True,2.25907993317,-1.4,12.8,1,0.1,,,2016_May_04_1318,59.8462146517,Peak_procedure,002,FB,
22,0,22,0,None,,,,,,,,,0,0,0,0,,,,,,,,,23,0,True,2.5071079731,-1.4,12.8,1,0.1,,,2016_May_04_1318,59.8462146517,Peak_procedure,002,FB,
22,0,22,0,None,,,,,,,,,0,0,0,0,,,,,,,,,23,0,True,2.70998096466,-1.4,12.8,1,0.1,,,2016_May_04_1318,59.8462146517,Peak_procedure,002,FB,
22,0,22,0,None,,,,,,,,,0,0,0,0,,,,,,,,,23,0,True,2.96048903465,-1.4,12.8,1,0.1,,,2016_May_04_1318,59.8462146517,Peak_procedure,002,FB,
22,0,22,0,None,,,,,,,,,0,0,0,0,,,,,,,,,23,0,True,3.17763209343,-1.4,12.8,1,0.1,,,2016_May_04_1318,59.8462146517,Peak_procedure,002,FB,
22,0,22,0,None,,,,,,,,,0,0,0,0,,,,,,,,,23,0,True,3.3922791481,-1.4,12.8,1,0.1,,,2016_May_04_1318,59.8462146517,Peak_procedure,002,FB,
22,0,22,0,None,,,,,,,,,0,0,0,0,,,,,,,,,23,0,True,3.62765598297,-1.4,12.8,1,0.1,,,2016_May_04_1318,59.8462146517,Peak_procedure,002,FB,
22,0,22,0,None,,,,,,,,,0,0,0,0,,,,,,,,,23,0,True,3.8619389534,-1.4,12.8,1,0.1,,,2016_May_04_1318,59.8462146517,Peak_procedure,002,FB,
22,0,22,0,None,,,,,,,,,0,0,0,0,,,,,,,,,23,0,True,4.06290006638,-1.4,12.8,1,0.1,,,2016_May_04_1318,59.8462146517,Peak_procedure,002,FB,
22,0,22,0,None,,,,,,,,,0,0,0,0,,,,,,,,,23,0,True,4.29647707939,-1.4,12.8,1,0.1,,,2016_May_04_1318,59.8462146517,Peak_procedure,002,FB,
22,0,22,0,None,,,,,,,,,0,0,0,0,,,,,,,,,23,0,True,4.51393604279,-1.4,12.8,1,0.1,,,2016_May_04_1318,59.8462146517,Peak_procedure,002,FB,
22,0,22,0,None,,,,,,,,,0,0,0,0,,,,,,,,,23,0,True,4.73105812073,-1.4,12.8,1,0.1,,,2016_May_04_1318,59.8462146517,Peak_procedure,002,FB,
22,0,22,0,None,,,,,,,,,0,0,0,0,,,,,,,,,23,0,True,4.96520113945,-1.4,12.8,1,0.1,,,2016_May_04_1318,59.8462146517,Peak_procedure,002,FB,
22,0,22,0,None,,,,,,,,,0,0,0,0,,,,,,,,,,,,,,,,,,,2016_May_04_1318,59.8462146517,Peak_procedure,002,FB,
22,0,22,0,None,,,,,,,,,,,,,,,,,,,,,,,,,,,,,,,2016_May_04_1318,59.8462146517,Peak_procedure,002,FB,
23,0,23,0,None,0,0,0,0,,,,,,,,,,,,,,,"['space', 'space', 'space', 'space', 'space']","[2.220463991165161, 2.4067089557647705, 2.573132038116455, 2.7401700019836426, 3.105311870574951]",,,,,,,,,,,2016_May_04_1318,59.8462146517,Peak_procedure,002,FB,
23,0,23,0,None,,,,,,,,,0,0,0,0,,,,,,,,,24,1,False,2.22046399117,0.6,13.4,1,0.1,,,2016_May_04_1318,59.8462146517,Peak_procedure,002,FB,
23,0,23,0,None,,,,,,,,,0,0,0,0,,,,,,,,,24,1,False,2.40670895576,0.6,13.4,1,0.1,,,2016_May_04_1318,59.8462146517,Peak_procedure,002,FB,
23,0,23,0,None,,,,,,,,,0,0,0,0,,,,,,,,,24,1,False,2.57313203812,0.6,13.4,1,0.1,,,2016_May_04_1318,59.8462146517,Peak_procedure,002,FB,
23,0,23,0,None,,,,,,,,,0,0,0,0,,,,,,,,,24,1,False,2.74017000198,0.6,13.4,1,0.1,,,2016_May_04_1318,59.8462146517,Peak_procedure,002,FB,
23,0,23,0,None,,,,,,,,,0,0,0,0,,,,,,,,,24,1,False,3.10531187057,0.6,13.4,1,0.1,,,2016_May_04_1318,59.8462146517,Peak_procedure,002,FB,
23,0,23,0,None,,,,,,,,,0,0,0,0,,,,,,,,,,,,,,,,,,,2016_May_04_1318,59.8462146517,Peak_procedure,002,FB,
23,0,23,0,None,,,,,,,,,,,,,,,,,,,,,,,,,,,,,,,2016_May_04_1318,59.8462146517,Peak_procedure,002,FB,
24,0,24,0,None,0,0,0,0,,,,,,,,,,,,,,,"['space', 'space']","[0.00024819374084472656, 3.5665462017059326]",,,,,,,,,,,2016_May_04_1318,59.8462146517,Peak_procedure,002,FB,
24,0,24,0,None,,,,,,,,,0,0,0,0,,,,,,,,,25,1,False,0.000248193740845,0.9,14.3,1,0.1,,,2016_May_04_1318,59.8462146517,Peak_procedure,002,FB,
24,0,24,0,None,,,,,,,,,0,0,0,0,,,,,,,,,25,1,False,3.56654620171,0.9,14.3,1,0.1,,,2016_May_04_1318,59.8462146517,Peak_procedure,002,FB,
24,0,24,0,None,,,,,,,,,0,0,0,0,,,,,,,,,,,,,,,,,,,2016_May_04_1318,59.8462146517,Peak_procedure,002,FB,
24,0,24,0,None,,,,,,,,,,,,,,,,,,,,,,,,,,,,,,,2016_May_04_1318,59.8462146517,Peak_procedure,002,FB,
25,0,25,0,None,0,0,0,0,,,,,,,,,,,,,,,"['space', 'space', 'space']","[0.0002460479736328125, 3.047538995742798]",,,,,,,,,,,2016_May_04_1318,59.8462146517,Peak_procedure,002,FB,
25,0,25,0,None,,,,,,,,,0,0,0,0,,,,,,,,,26,1,False,0.000246047973633,0.9,15.2,1,0.1,,,2016_May_04_1318,59.8462146517,Peak_procedure,002,FB,
25,0,25,0,None,,,,,,,,,0,0,0,0,,,,,,,,,26,1,False,3.04753899574,0.9,15.2,1,0.1,,,2016_May_04_1318,59.8462146517,Peak_procedure,002,FB,
25,0,25,0,None,,,,,,,,,0,0,0,0,,,,,,,,,,,,,,,,,,,2016_May_04_1318,59.8462146517,Peak_procedure,002,FB,
25,0,25,0,None,,,,,,,,,,,,,,,,,,,,,,,,,,,,,,,2016_May_04_1318,59.8462146517,Peak_procedure,002,FB,
26,0,26,0,None,,,,,0,0,0,0,,,,,,,,,,,,,,,,,,,,,"['space', 'space', 'space', 'space', 'space', 'space', 'space', 'space', 'space', 'space', 'space', 'space', 'space', 'space', 'space', 'space']","[0.0002760887145996094, 2.2634592056274414, 2.466884136199951, 2.6831421852111816, 2.883151054382324, 3.101431131362915, 3.335211992263794, 3.532802104949951, 3.7193901538848877, 3.916926145553589, 4.10366415977478, 4.270512104034424, 4.45375919342041, 4.654778003692627, 7.910974979400635, 8.094421148300171]",2016_May_04_1318,59.8462146517,Peak_procedure,002,FB,
26,0,26,0,None,,,,,,,,,0,0,0,0,,,,,,,,,27,0,True,0.0002760887146,-1.6,13.6,1,0.1,,,2016_May_04_1318,59.8462146517,Peak_procedure,002,FB,
26,0,26,0,None,,,,,,,,,0,0,0,0,,,,,,,,,27,0,True,2.26345920563,-1.6,13.6,1,0.1,,,2016_May_04_1318,59.8462146517,Peak_procedure,002,FB,
26,0,26,0,None,,,,,,,,,0,0,0,0,,,,,,,,,27,0,True,2.4668841362,-1.6,13.6,1,0.1,,,2016_May_04_1318,59.8462146517,Peak_procedure,002,FB,
26,0,26,0,None,,,,,,,,,0,0,0,0,,,,,,,,,27,0,True,2.68314218521,-1.6,13.6,1,0.1,,,2016_May_04_1318,59.8462146517,Peak_procedure,002,FB,
26,0,26,0,None,,,,,,,,,0,0,0,0,,,,,,,,,27,0,True,2.88315105438,-1.6,13.6,1,0.1,,,2016_May_04_1318,59.8462146517,Peak_procedure,002,FB,
26,0,26,0,None,,,,,,,,,0,0,0,0,,,,,,,,,27,0,True,3.10143113136,-1.6,13.6,1,0.1,,,2016_May_04_1318,59.8462146517,Peak_procedure,002,FB,
26,0,26,0,None,,,,,,,,,0,0,0,0,,,,,,,,,27,0,True,3.33521199226,-1.6,13.6,1,0.1,,,2016_May_04_1318,59.8462146517,Peak_procedure,002,FB,
26,0,26,0,None,,,,,,,,,0,0,0,0,,,,,,,,,27,0,True,3.53280210495,-1.6,13.6,1,0.1,,,2016_May_04_1318,59.8462146517,Peak_procedure,002,FB,
26,0,26,0,None,,,,,,,,,0,0,0,0,,,,,,,,,27,0,True,3.71939015388,-1.6,13.6,1,0.1,,,2016_May_04_1318,59.8462146517,Peak_procedure,002,FB,
26,0,26,0,None,,,,,,,,,0,0,0,0,,,,,,,,,27,0,True,3.91692614555,-1.6,13.6,1,0.1,,,2016_May_04_1318,59.8462146517,Peak_procedure,002,FB,
26,0,26,0,None,,,,,,,,,0,0,0,0,,,,,,,,,27,0,True,4.10366415977,-1.6,13.6,1,0.1,,,2016_May_04_1318,59.8462146517,Peak_procedure,002,FB,
26,0,26,0,None,,,,,,,,,0,0,0,0,,,,,,,,,27,0,True,4.27051210403,-1.6,13.6,1,0.1,,,2016_May_04_1318,59.8462146517,Peak_procedure,002,FB,
26,0,26,0,None,,,,,,,,,0,0,0,0,,,,,,,,,27,0,True,4.45375919342,-1.6,13.6,1,0.1,,,2016_May_04_1318,59.8462146517,Peak_procedure,002,FB,
26,0,26,0,None,,,,,,,,,0,0,0,0,,,,,,,,,27,0,True,4.65477800369,-1.6,13.6,1,0.1,,,2016_May_04_1318,59.8462146517,Peak_procedure,002,FB,
26,0,26,0,None,,,,,,,,,0,0,0,0,,,,,,,,,27,0,True,7.9109749794,-1.6,13.6,1,0.1,,,2016_May_04_1318,59.8462146517,Peak_procedure,002,FB,
26,0,26,0,None,,,,,,,,,0,0,0,0,,,,,,,,,27,0,True,8.0944211483,-1.6,13.6,1,0.1,,,2016_May_04_1318,59.8462146517,Peak_procedure,002,FB,
26,0,26,0,None,,,,,,,,,0,0,0,0,,,,,,,,,,,,,,,,,,,2016_May_04_1318,59.8462146517,Peak_procedure,002,FB,
26,0,26,0,None,,,,,,,,,,,,,,,,,,,,,,,,,,,,,,,2016_May_04_1318,59.8462146517,Peak_procedure,002,FB,
27,0,27,0,None,,,,,0,0,0,0,,,,,,,,,,,,,,,,,,,,,"['space', 'space', 'space', 'space', 'space', 'space', 'space', 'space', 'space', 'space', 'space', 'space', 'space']","[2.5887858867645264, 2.8063910007476807, 2.990262031555176, 3.190692901611328, 3.374469041824341, 3.591197967529297, 3.775805950164795, 3.9751479625701904, 4.158895969390869, 4.375990867614746, 4.543118953704834, 4.710507869720459, 4.910367012023926]",2016_May_04_1318,59.8462146517,Peak_procedure,002,FB,
27,0,27,0,None,,,,,,,,,0,0,0,0,,,,,,,,,28,0,True,2.58878588676,-1.3,12.3,1,0.1,,,2016_May_04_1318,59.8462146517,Peak_procedure,002,FB,
27,0,27,0,None,,,,,,,,,0,0,0,0,,,,,,,,,28,0,True,2.80639100075,-1.3,12.3,1,0.1,,,2016_May_04_1318,59.8462146517,Peak_procedure,002,FB,
27,0,27,0,None,,,,,,,,,0,0,0,0,,,,,,,,,28,0,True,2.99026203156,-1.3,12.3,1,0.1,,,2016_May_04_1318,59.8462146517,Peak_procedure,002,FB,
27,0,27,0,None,,,,,,,,,0,0,0,0,,,,,,,,,28,0,True,3.19069290161,-1.3,12.3,1,0.1,,,2016_May_04_1318,59.8462146517,Peak_procedure,002,FB,
27,0,27,0,None,,,,,,,,,0,0,0,0,,,,,,,,,28,0,True,3.37446904182,-1.3,12.3,1,0.1,,,2016_May_04_1318,59.8462146517,Peak_procedure,002,FB,
27,0,27,0,None,,,,,,,,,0,0,0,0,,,,,,,,,28,0,True,3.59119796753,-1.3,12.3,1,0.1,,,2016_May_04_1318,59.8462146517,Peak_procedure,002,FB,
27,0,27,0,None,,,,,,,,,0,0,0,0,,,,,,,,,28,0,True,3.77580595016,-1.3,12.3,1,0.1,,,2016_May_04_1318,59.8462146517,Peak_procedure,002,FB,
27,0,27,0,None,,,,,,,,,0,0,0,0,,,,,,,,,28,0,True,3.97514796257,-1.3,12.3,1,0.1,,,2016_May_04_1318,59.8462146517,Peak_procedure,002,FB,
27,0,27,0,None,,,,,,,,,0,0,0,0,,,,,,,,,28,0,True,4.15889596939,-1.3,12.3,1,0.1,,,2016_May_04_1318,59.8462146517,Peak_procedure,002,FB,
27,0,27,0,None,,,,,,,,,0,0,0,0,,,,,,,,,28,0,True,4.37599086761,-1.3,12.3,1,0.1,,,2016_May_04_1318,59.8462146517,Peak_procedure,002,FB,
27,0,27,0,None,,,,,,,,,0,0,0,0,,,,,,,,,28,0,True,4.5431189537,-1.3,12.3,1,0.1,,,2016_May_04_1318,59.8462146517,Peak_procedure,002,FB,
27,0,27,0,None,,,,,,,,,0,0,0,0,,,,,,,,,28,0,True,4.71050786972,-1.3,12.3,1,0.1,,,2016_May_04_1318,59.8462146517,Peak_procedure,002,FB,
27,0,27,0,None,,,,,,,,,0,0,0,0,,,,,,,,,28,0,True,4.91036701202,-1.3,12.3,1,0.1,,,2016_May_04_1318,59.8462146517,Peak_procedure,002,FB,
27,0,27,0,None,,,,,,,,,0,0,0,0,,,,,,,,,,,,,,,,,,,2016_May_04_1318,59.8462146517,Peak_procedure,002,FB,
27,0,27,0,None,,,,,,,,,,,,,,,,,,,,,,,,,,,,,,,2016_May_04_1318,59.8462146517,Peak_procedure,002,FB,
28,0,28,0,None,0,0,0,0,,,,,,,,,,,,,,,['space'],[3.419679880142212],,,,,,,,,,,2016_May_04_1318,59.8462146517,Peak_procedure,002,FB,
28,0,28,0,None,,,,,,,,,0,0,0,0,,,,,,,,,29,1,False,3.41967988014,1,13.3,1,0.1,,,2016_May_04_1318,59.8462146517,Peak_procedure,002,FB,
28,0,28,0,None,,,,,,,,,0,0,0,0,,,,,,,,,,,,,,,,,,,2016_May_04_1318,59.8462146517,Peak_procedure,002,FB,
28,0,28,0,None,,,,,,,,,,,,,,,,,,,,,,,,,,,,,,,2016_May_04_1318,59.8462146517,Peak_procedure,002,FB,
29,0,29,0,None,0,0,0,0,,,,,,,,,,,,,,,"['space', 'space', 'space', 'space', 'space', 'space', 'space', 'space', 'space']","[0.00025391578674316406, 1.805769920349121, 2.0037240982055664, 2.173346996307373, 4.344512939453125]",,,,,,,,,,,2016_May_04_1318,59.8462146517,Peak_procedure,002,FB,
29,0,29,0,None,,,,,,,,,0,0,0,0,,,,,,,,,30,1,False,0.000253915786743,0.6,13.9,1,0.1,,,2016_May_04_1318,59.8462146517,Peak_procedure,002,FB,
29,0,29,0,None,,,,,,,,,0,0,0,0,,,,,,,,,30,1,False,1.80576992035,0.6,13.9,1,0.1,,,2016_May_04_1318,59.8462146517,Peak_procedure,002,FB,
29,0,29,0,None,,,,,,,,,0,0,0,0,,,,,,,,,30,1,False,2.00372409821,0.6,13.9,1,0.1,,,2016_May_04_1318,59.8462146517,Peak_procedure,002,FB,
29,0,29,0,None,,,,,,,,,0,0,0,0,,,,,,,,,30,1,False,2.17334699631,0.6,13.9,1,0.1,,,2016_May_04_1318,59.8462146517,Peak_procedure,002,FB,
29,0,29,0,None,,,,,,,,,0,0,0,0,,,,,,,,,30,1,False,4.34451293945,0.6,13.9,1,0.1,,,2016_May_04_1318,59.8462146517,Peak_procedure,002,FB,
29,0,29,0,None,,,,,,,,,0,0,0,0,,,,,,,,,,,,,,,,,,,2016_May_04_1318,59.8462146517,Peak_procedure,002,FB,
29,0,29,0,None,,,,,,,,,,,,,,,,,,,,,,,,,,,,,,,2016_May_04_1318,59.8462146517,Peak_procedure,002,FB,
30,0,30,0,None,,,,,0,0,0,0,,,,,,,,,,,,,,,,,,,,,"['space', 'space', 'space', 'space', 'space', 'space', 'space', 'space', 'space', 'space', 'space', 'space']","[0.00034308433532714844, 2.6032140254974365, 2.8369250297546387, 3.0207300186157227, 3.2224581241607666, 3.4059720039367676, 3.607012987136841, 4.006474018096924, 4.2075700759887695, 4.3751890659332275, 4.5414910316467285, 4.708707094192505]",2016_May_04_1318,59.8462146517,Peak_procedure,002,FB,
30,0,30,0,None,,,,,,,,,0,0,0,0,,,,,,,,,31,0,True,0.000343084335327,-1.2,12.7,1,0.1,,,2016_May_04_1318,59.8462146517,Peak_procedure,002,FB,
30,0,30,0,None,,,,,,,,,0,0,0,0,,,,,,,,,31,0,True,2.6032140255,-1.2,12.7,1,0.1,,,2016_May_04_1318,59.8462146517,Peak_procedure,002,FB,
30,0,30,0,None,,,,,,,,,0,0,0,0,,,,,,,,,31,0,True,2.83692502975,-1.2,12.7,1,0.1,,,2016_May_04_1318,59.8462146517,Peak_procedure,002,FB,
30,0,30,0,None,,,,,,,,,0,0,0,0,,,,,,,,,31,0,True,3.02073001862,-1.2,12.7,1,0.1,,,2016_May_04_1318,59.8462146517,Peak_procedure,002,FB,
30,0,30,0,None,,,,,,,,,0,0,0,0,,,,,,,,,31,0,True,3.22245812416,-1.2,12.7,1,0.1,,,2016_May_04_1318,59.8462146517,Peak_procedure,002,FB,
30,0,30,0,None,,,,,,,,,0,0,0,0,,,,,,,,,31,0,True,3.40597200394,-1.2,12.7,1,0.1,,,2016_May_04_1318,59.8462146517,Peak_procedure,002,FB,
30,0,30,0,None,,,,,,,,,0,0,0,0,,,,,,,,,31,0,True,3.60701298714,-1.2,12.7,1,0.1,,,2016_May_04_1318,59.8462146517,Peak_procedure,002,FB,
30,0,30,0,None,,,,,,,,,0,0,0,0,,,,,,,,,31,0,True,4.0064740181,-1.2,12.7,1,0.1,,,2016_May_04_1318,59.8462146517,Peak_procedure,002,FB,
30,0,30,0,None,,,,,,,,,0,0,0,0,,,,,,,,,31,0,True,4.20757007599,-1.2,12.7,1,0.1,,,2016_May_04_1318,59.8462146517,Peak_procedure,002,FB,
30,0,30,0,None,,,,,,,,,0,0,0,0,,,,,,,,,31,0,True,4.37518906593,-1.2,12.7,1,0.1,,,2016_May_04_1318,59.8462146517,Peak_procedure,002,FB,
30,0,30,0,None,,,,,,,,,0,0,0,0,,,,,,,,,31,0,True,4.54149103165,-1.2,12.7,1,0.1,,,2016_May_04_1318,59.8462146517,Peak_procedure,002,FB,
30,0,30,0,None,,,,,,,,,0,0,0,0,,,,,,,,,31,0,True,4.70870709419,-1.2,12.7,1,0.1,,,2016_May_04_1318,59.8462146517,Peak_procedure,002,FB,
30,0,30,0,None,,,,,,,,,0,0,0,0,,,,,,,,,,,,,,,,,,,2016_May_04_1318,59.8462146517,Peak_procedure,002,FB,
30,0,30,0,None,,,,,,,,,,,,,,,,,,,,,,,,,,,,,,,2016_May_04_1318,59.8462146517,Peak_procedure,002,FB,
31,0,31,0,None,,,,,0,0,0,0,,,,,,,,,,,,,,,,,,,,,"['space', 'space', 'space', 'space', 'space', 'space', 'space', 'space', 'space', 'space', 'space']","[3.8289308547973633, 4.045552015304565, 4.246447801589966, 4.430359840393066, 4.630083799362183, 4.814385890960693, 5.01556396484375, 5.1980299949646, 5.399510860443115, 5.582342863082886, 5.799742937088013]",2016_May_04_1318,59.8462146517,Peak_procedure,002,FB,
31,0,31,0,None,,,,,,,,,0,0,0,0,,,,,,,,,32,0,True,3.8289308548,-1.1,11.6,1,0.1,,,2016_May_04_1318,59.8462146517,Peak_procedure,002,FB,
31,0,31,0,None,,,,,,,,,0,0,0,0,,,,,,,,,32,0,True,4.0455520153,-1.1,11.6,1,0.1,,,2016_May_04_1318,59.8462146517,Peak_procedure,002,FB,
31,0,31,0,None,,,,,,,,,0,0,0,0,,,,,,,,,32,0,True,4.24644780159,-1.1,11.6,1,0.1,,,2016_May_04_1318,59.8462146517,Peak_procedure,002,FB,
31,0,31,0,None,,,,,,,,,0,0,0,0,,,,,,,,,32,0,True,4.43035984039,-1.1,11.6,1,0.1,,,2016_May_04_1318,59.8462146517,Peak_procedure,002,FB,
31,0,31,0,None,,,,,,,,,0,0,0,0,,,,,,,,,32,0,True,4.63008379936,-1.1,11.6,1,0.1,,,2016_May_04_1318,59.8462146517,Peak_procedure,002,FB,
31,0,31,0,None,,,,,,,,,0,0,0,0,,,,,,,,,32,0,True,4.81438589096,-1.1,11.6,1,0.1,,,2016_May_04_1318,59.8462146517,Peak_procedure,002,FB,
31,0,31,0,None,,,,,,,,,0,0,0,0,,,,,,,,,32,0,True,5.01556396484,-1.1,11.6,1,0.1,,,2016_May_04_1318,59.8462146517,Peak_procedure,002,FB,
31,0,31,0,None,,,,,,,,,0,0,0,0,,,,,,,,,32,0,True,5.19802999496,-1.1,11.6,1,0.1,,,2016_May_04_1318,59.8462146517,Peak_procedure,002,FB,
31,0,31,0,None,,,,,,,,,0,0,0,0,,,,,,,,,32,0,True,5.39951086044,-1.1,11.6,1,0.1,,,2016_May_04_1318,59.8462146517,Peak_procedure,002,FB,
31,0,31,0,None,,,,,,,,,0,0,0,0,,,,,,,,,32,0,True,5.58234286308,-1.1,11.6,1,0.1,,,2016_May_04_1318,59.8462146517,Peak_procedure,002,FB,
31,0,31,0,None,,,,,,,,,0,0,0,0,,,,,,,,,32,0,True,5.79974293709,-1.1,11.6,1,0.1,,,2016_May_04_1318,59.8462146517,Peak_procedure,002,FB,
31,0,31,0,None,,,,,,,,,0,0,0,0,,,,,,,,,,,,,,,,,,,2016_May_04_1318,59.8462146517,Peak_procedure,002,FB,
31,0,31,0,None,,,,,,,,,,,,,,,,,,,,,,,,,,,,,,,2016_May_04_1318,59.8462146517,Peak_procedure,002,FB,
32,0,32,0,None,,,,,0,0,0,0,,,,,,,,,,,,,,,,,,,,,"['space', 'space', 'space', 'space', 'space']","[2.973639965057373, 5.262403964996338, 7.834500074386597, 8.252301931381226, 8.70225191116333]",2016_May_04_1318,59.8462146517,Peak_procedure,002,FB,
32,0,32,0,None,,,,,,,,,0,0,0,0,,,,,,,,,33,0,True,2.97363996506,-0.5,11.1,1,0.1,,,2016_May_04_1318,59.8462146517,Peak_procedure,002,FB,
32,0,32,0,None,,,,,,,,,0,0,0,0,,,,,,,,,33,0,True,5.262403965,-0.5,11.1,1,0.1,,,2016_May_04_1318,59.8462146517,Peak_procedure,002,FB,
32,0,32,0,None,,,,,,,,,0,0,0,0,,,,,,,,,33,0,True,7.83450007439,-0.5,11.1,1,0.1,,,2016_May_04_1318,59.8462146517,Peak_procedure,002,FB,
32,0,32,0,None,,,,,,,,,0,0,0,0,,,,,,,,,33,0,True,8.25230193138,-0.5,11.1,1,0.1,,,2016_May_04_1318,59.8462146517,Peak_procedure,002,FB,
32,0,32,0,None,,,,,,,,,0,0,0,0,,,,,,,,,33,0,True,8.70225191116,-0.5,11.1,1,0.1,,,2016_May_04_1318,59.8462146517,Peak_procedure,002,FB,
32,0,32,0,None,,,,,,,,,0,0,0,0,,,,,,,,,,,,,,,,,,,2016_May_04_1318,59.8462146517,Peak_procedure,002,FB,
32,0,32,0,None,,,,,,,,,,,,,,,,,,,,,,,,,,,,,,,2016_May_04_1318,59.8462146517,Peak_procedure,002,FB,
33,0,33,0,None,,,,,0,0,0,0,,,,,,,,,,,,,,,,,,,,,"['space', 'space', 'space', 'space', 'space', 'space', 'space', 'space', 'space', 'space', 'space', 'space', 'space', 'space', 'space']","[3.198457956314087, 3.415449857711792, 3.599091053009033, 3.799920082092285, 3.9827160835266113, 4.184931039810181, 4.350238084793091, 4.533719062805176, 4.750650882720947, 4.951524972915649, 5.118505954742432, 5.3029749393463135, 5.469866991043091, 5.636866092681885, 5.8540709018707275]",2016_May_04_1318,59.8462146517,Peak_procedure,002,FB,
33,0,33,0,None,,,,,,,,,0,0,0,0,,,,,,,,,34,0,True,3.19845795631,-1.5,9.6,1,0.1,,,2016_May_04_1318,59.8462146517,Peak_procedure,002,FB,
33,0,33,0,None,,,,,,,,,0,0,0,0,,,,,,,,,34,0,True,3.41544985771,-1.5,9.6,1,0.1,,,2016_May_04_1318,59.8462146517,Peak_procedure,002,FB,
33,0,33,0,None,,,,,,,,,0,0,0,0,,,,,,,,,34,0,True,3.59909105301,-1.5,9.6,1,0.1,,,2016_May_04_1318,59.8462146517,Peak_procedure,002,FB,
33,0,33,0,None,,,,,,,,,0,0,0,0,,,,,,,,,34,0,True,3.79992008209,-1.5,9.6,1,0.1,,,2016_May_04_1318,59.8462146517,Peak_procedure,002,FB,
33,0,33,0,None,,,,,,,,,0,0,0,0,,,,,,,,,34,0,True,3.98271608353,-1.5,9.6,1,0.1,,,2016_May_04_1318,59.8462146517,Peak_procedure,002,FB,
33,0,33,0,None,,,,,,,,,0,0,0,0,,,,,,,,,34,0,True,4.18493103981,-1.5,9.6,1,0.1,,,2016_May_04_1318,59.8462146517,Peak_procedure,002,FB,
33,0,33,0,None,,,,,,,,,0,0,0,0,,,,,,,,,34,0,True,4.35023808479,-1.5,9.6,1,0.1,,,2016_May_04_1318,59.8462146517,Peak_procedure,002,FB,
33,0,33,0,None,,,,,,,,,0,0,0,0,,,,,,,,,34,0,True,4.53371906281,-1.5,9.6,1,0.1,,,2016_May_04_1318,59.8462146517,Peak_procedure,002,FB,
33,0,33,0,None,,,,,,,,,0,0,0,0,,,,,,,,,34,0,True,4.75065088272,-1.5,9.6,1,0.1,,,2016_May_04_1318,59.8462146517,Peak_procedure,002,FB,
33,0,33,0,None,,,,,,,,,0,0,0,0,,,,,,,,,34,0,True,4.95152497292,-1.5,9.6,1,0.1,,,2016_May_04_1318,59.8462146517,Peak_procedure,002,FB,
33,0,33,0,None,,,,,,,,,0,0,0,0,,,,,,,,,34,0,True,5.11850595474,-1.5,9.6,1,0.1,,,2016_May_04_1318,59.8462146517,Peak_procedure,002,FB,
33,0,33,0,None,,,,,,,,,0,0,0,0,,,,,,,,,34,0,True,5.30297493935,-1.5,9.6,1,0.1,,,2016_May_04_1318,59.8462146517,Peak_procedure,002,FB,
33,0,33,0,None,,,,,,,,,0,0,0,0,,,,,,,,,34,0,True,5.46986699104,-1.5,9.6,1,0.1,,,2016_May_04_1318,59.8462146517,Peak_procedure,002,FB,
33,0,33,0,None,,,,,,,,,0,0,0,0,,,,,,,,,34,0,True,5.63686609268,-1.5,9.6,1,0.1,,,2016_May_04_1318,59.8462146517,Peak_procedure,002,FB,
33,0,33,0,None,,,,,,,,,0,0,0,0,,,,,,,,,34,0,True,5.85407090187,-1.5,9.6,1,0.1,,,2016_May_04_1318,59.8462146517,Peak_procedure,002,FB,
33,0,33,0,None,,,,,,,,,0,0,0,0,,,,,,,,,,,,,,,,,,,2016_May_04_1318,59.8462146517,Peak_procedure,002,FB,
33,0,33,0,None,,,,,,,,,,,,,,,,,,,,,,,,,,,,,,,2016_May_04_1318,59.8462146517,Peak_procedure,002,FB,
34,0,34,0,None,0,0,0,0,,,,,,,,,,,,,,,['space'],[3.952470064163208],,,,,,,,,,,2016_May_04_1318,59.8462146517,Peak_procedure,002,FB,
34,0,34,0,None,,,,,,,,,0,0,0,0,,,,,,,,,35,1,False,3.95247006416,1,10.6,1,0.1,,,2016_May_04_1318,59.8462146517,Peak_procedure,002,FB,
34,0,34,0,None,,,,,,,,,0,0,0,0,,,,,,,,,,,,,,,,,,,2016_May_04_1318,59.8462146517,Peak_procedure,002,FB,
34,0,34,0,None,,,,,,,,,,,,,,,,,,,,,,,,,,,,,,,2016_May_04_1318,59.8462146517,Peak_procedure,002,FB,
35,0,35,0,None,,,,,0,0,0,0,,,,,,,,,,,,,,,,,,,,,"['space', 'space', 'space', 'space', 'space', 'space', 'space', 'space', 'space', 'space', 'space', 'space', 'space', 'space', 'space', 'space', 'space']","[0.0002739429473876953, 3.344758987426758, 3.5805890560150146, 3.780060052871704, 3.996546983718872, 4.1809611320495605, 4.378757953643799, 4.565414905548096, 4.7628700733184814, 4.964806079864502, 5.165175914764404, 5.399219989776611, 5.600819110870361, 5.768109083175659, 5.950318098068237, 6.151618003845215]",2016_May_04_1318,59.8462146517,Peak_procedure,002,FB,
35,0,35,0,None,,,,,,,,,0,0,0,0,,,,,,,,,36,0,True,0.000273942947388,-1.6,9.0,1,0.1,,,2016_May_04_1318,59.8462146517,Peak_procedure,002,FB,
35,0,35,0,None,,,,,,,,,0,0,0,0,,,,,,,,,36,0,True,3.34475898743,-1.6,9.0,1,0.1,,,2016_May_04_1318,59.8462146517,Peak_procedure,002,FB,
35,0,35,0,None,,,,,,,,,0,0,0,0,,,,,,,,,36,0,True,3.58058905602,-1.6,9.0,1,0.1,,,2016_May_04_1318,59.8462146517,Peak_procedure,002,FB,
35,0,35,0,None,,,,,,,,,0,0,0,0,,,,,,,,,36,0,True,3.78006005287,-1.6,9.0,1,0.1,,,2016_May_04_1318,59.8462146517,Peak_procedure,002,FB,
35,0,35,0,None,,,,,,,,,0,0,0,0,,,,,,,,,36,0,True,3.99654698372,-1.6,9.0,1,0.1,,,2016_May_04_1318,59.8462146517,Peak_procedure,002,FB,
35,0,35,0,None,,,,,,,,,0,0,0,0,,,,,,,,,36,0,True,4.18096113205,-1.6,9.0,1,0.1,,,2016_May_04_1318,59.8462146517,Peak_procedure,002,FB,
35,0,35,0,None,,,,,,,,,0,0,0,0,,,,,,,,,36,0,True,4.37875795364,-1.6,9.0,1,0.1,,,2016_May_04_1318,59.8462146517,Peak_procedure,002,FB,
35,0,35,0,None,,,,,,,,,0,0,0,0,,,,,,,,,36,0,True,4.56541490555,-1.6,9.0,1,0.1,,,2016_May_04_1318,59.8462146517,Peak_procedure,002,FB,
35,0,35,0,None,,,,,,,,,0,0,0,0,,,,,,,,,36,0,True,4.76287007332,-1.6,9.0,1,0.1,,,2016_May_04_1318,59.8462146517,Peak_procedure,002,FB,
35,0,35,0,None,,,,,,,,,0,0,0,0,,,,,,,,,36,0,True,4.96480607986,-1.6,9.0,1,0.1,,,2016_May_04_1318,59.8462146517,Peak_procedure,002,FB,
35,0,35,0,None,,,,,,,,,0,0,0,0,,,,,,,,,36,0,True,5.16517591476,-1.6,9.0,1,0.1,,,2016_May_04_1318,59.8462146517,Peak_procedure,002,FB,
35,0,35,0,None,,,,,,,,,0,0,0,0,,,,,,,,,36,0,True,5.39921998978,-1.6,9.0,1,0.1,,,2016_May_04_1318,59.8462146517,Peak_procedure,002,FB,
35,0,35,0,None,,,,,,,,,0,0,0,0,,,,,,,,,36,0,True,5.60081911087,-1.6,9.0,1,0.1,,,2016_May_04_1318,59.8462146517,Peak_procedure,002,FB,
35,0,35,0,None,,,,,,,,,0,0,0,0,,,,,,,,,36,0,True,5.76810908318,-1.6,9.0,1,0.1,,,2016_May_04_1318,59.8462146517,Peak_procedure,002,FB,
35,0,35,0,None,,,,,,,,,0,0,0,0,,,,,,,,,36,0,True,5.95031809807,-1.6,9.0,1,0.1,,,2016_May_04_1318,59.8462146517,Peak_procedure,002,FB,
35,0,35,0,None,,,,,,,,,0,0,0,0,,,,,,,,,36,0,True,6.15161800385,-1.6,9.0,1,0.1,,,2016_May_04_1318,59.8462146517,Peak_procedure,002,FB,
35,0,35,0,None,,,,,,,,,0,0,0,0,,,,,,,,,,,,,,,,,,,2016_May_04_1318,59.8462146517,Peak_procedure,002,FB,
35,0,35,0,None,,,,,,,,,,,,,,,,,,,,,,,,,,,,,,,2016_May_04_1318,59.8462146517,Peak_procedure,002,FB,
36,0,36,0,None,,,,,0,0,0,0,,,,,,,,,,,,,,,,,,,,,"['space', 'space', 'space', 'space', 'space', 'space', 'space', 'space', 'space', 'space', 'space']","[3.37261700630188, 3.588404893875122, 3.773400068283081, 4.021299839019775, 4.207663059234619, 4.992094993591309, 5.243245840072632, 7.564872980117798, 7.781137943267822, 7.965637922286987, 8.183120012283325]",2016_May_04_1318,59.8462146517,Peak_procedure,002,FB,
36,0,36,0,None,,,,,,,,,0,0,0,0,,,,,,,,,37,0,True,3.3726170063,-1.1,7.9,1,0.1,,,2016_May_04_1318,59.8462146517,Peak_procedure,002,FB,
36,0,36,0,None,,,,,,,,,0,0,0,0,,,,,,,,,37,0,True,3.58840489388,-1.1,7.9,1,0.1,,,2016_May_04_1318,59.8462146517,Peak_procedure,002,FB,
36,0,36,0,None,,,,,,,,,0,0,0,0,,,,,,,,,37,0,True,3.77340006828,-1.1,7.9,1,0.1,,,2016_May_04_1318,59.8462146517,Peak_procedure,002,FB,
36,0,36,0,None,,,,,,,,,0,0,0,0,,,,,,,,,37,0,True,4.02129983902,-1.1,7.9,1,0.1,,,2016_May_04_1318,59.8462146517,Peak_procedure,002,FB,
36,0,36,0,None,,,,,,,,,0,0,0,0,,,,,,,,,37,0,True,4.20766305923,-1.1,7.9,1,0.1,,,2016_May_04_1318,59.8462146517,Peak_procedure,002,FB,
36,0,36,0,None,,,,,,,,,0,0,0,0,,,,,,,,,37,0,True,4.99209499359,-1.1,7.9,1,0.1,,,2016_May_04_1318,59.8462146517,Peak_procedure,002,FB,
36,0,36,0,None,,,,,,,,,0,0,0,0,,,,,,,,,37,0,True,5.24324584007,-1.1,7.9,1,0.1,,,2016_May_04_1318,59.8462146517,Peak_procedure,002,FB,
36,0,36,0,None,,,,,,,,,0,0,0,0,,,,,,,,,37,0,True,7.56487298012,-1.1,7.9,1,0.1,,,2016_May_04_1318,59.8462146517,Peak_procedure,002,FB,
36,0,36,0,None,,,,,,,,,0,0,0,0,,,,,,,,,37,0,True,7.78113794327,-1.1,7.9,1,0.1,,,2016_May_04_1318,59.8462146517,Peak_procedure,002,FB,
36,0,36,0,None,,,,,,,,,0,0,0,0,,,,,,,,,37,0,True,7.96563792229,-1.1,7.9,1,0.1,,,2016_May_04_1318,59.8462146517,Peak_procedure,002,FB,
36,0,36,0,None,,,,,,,,,0,0,0,0,,,,,,,,,37,0,True,8.18312001228,-1.1,7.9,1,0.1,,,2016_May_04_1318,59.8462146517,Peak_procedure,002,FB,
36,0,36,0,None,,,,,,,,,0,0,0,0,,,,,,,,,,,,,,,,,,,2016_May_04_1318,59.8462146517,Peak_procedure,002,FB,
36,0,36,0,None,,,,,,,,,,,,,,,,,,,,,,,,,,,,,,,2016_May_04_1318,59.8462146517,Peak_procedure,002,FB,
37,0,37,0,None,0,0,0,0,,,,,,,,,,,,,,,"['space', 'space', 'space', 'space']","[2.556580066680908, 2.7735190391540527, 2.97290301322937, 3.1577091217041016]",,,,,,,,,,,2016_May_04_1318,59.8462146517,Peak_procedure,002,FB,
37,0,37,0,None,,,,,,,,,0,0,0,0,,,,,,,,,38,1,False,2.55658006668,0.7,8.6,1,0.1,,,2016_May_04_1318,59.8462146517,Peak_procedure,002,FB,
37,0,37,0,None,,,,,,,,,0,0,0,0,,,,,,,,,38,1,False,2.77351903915,0.7,8.6,1,0.1,,,2016_May_04_1318,59.8462146517,Peak_procedure,002,FB,
37,0,37,0,None,,,,,,,,,0,0,0,0,,,,,,,,,38,1,False,2.97290301323,0.7,8.6,1,0.1,,,2016_May_04_1318,59.8462146517,Peak_procedure,002,FB,
37,0,37,0,None,,,,,,,,,0,0,0,0,,,,,,,,,38,1,False,3.1577091217,0.7,8.6,1,0.1,,,2016_May_04_1318,59.8462146517,Peak_procedure,002,FB,
37,0,37,0,None,,,,,,,,,0,0,0,0,,,,,,,,,,,,,,,,,,,2016_May_04_1318,59.8462146517,Peak_procedure,002,FB,
37,0,37,0,None,,,,,,,,,,,,,,,,,,,,,,,,,,,,,,,2016_May_04_1318,59.8462146517,Peak_procedure,002,FB,
38,0,38,0,None,,,,,0,0,0,0,,,,,,,,,,,,,,,,,,,,,"['space', 'space', 'space', 'space', 'space', 'space', 'space', 'space', 'space', 'space', 'space', 'space', 'space', 'space', 'space']","[0.0002989768981933594, 4.541842937469482, 4.75944185256958, 4.959967851638794, 5.143658876419067, 5.3111348152160645, 5.510770797729492, 5.72720193862915, 5.912323951721191, 6.109623908996582, 6.361827850341797, 8.26416301727295]",2016_May_04_1318,59.8462146517,Peak_procedure,002,FB,
38,0,38,0,None,,,,,,,,,0,0,0,0,,,,,,,,,39,0,True,0.000298976898193,-1.2,7.4,1,0.1,,,2016_May_04_1318,59.8462146517,Peak_procedure,002,FB,
38,0,38,0,None,,,,,,,,,0,0,0,0,,,,,,,,,39,0,True,4.54184293747,-1.2,7.4,1,0.1,,,2016_May_04_1318,59.8462146517,Peak_procedure,002,FB,
38,0,38,0,None,,,,,,,,,0,0,0,0,,,,,,,,,39,0,True,4.75944185257,-1.2,7.4,1,0.1,,,2016_May_04_1318,59.8462146517,Peak_procedure,002,FB,
38,0,38,0,None,,,,,,,,,0,0,0,0,,,,,,,,,39,0,True,4.95996785164,-1.2,7.4,1,0.1,,,2016_May_04_1318,59.8462146517,Peak_procedure,002,FB,
38,0,38,0,None,,,,,,,,,0,0,0,0,,,,,,,,,39,0,True,5.14365887642,-1.2,7.4,1,0.1,,,2016_May_04_1318,59.8462146517,Peak_procedure,002,FB,
38,0,38,0,None,,,,,,,,,0,0,0,0,,,,,,,,,39,0,True,5.31113481522,-1.2,7.4,1,0.1,,,2016_May_04_1318,59.8462146517,Peak_procedure,002,FB,
38,0,38,0,None,,,,,,,,,0,0,0,0,,,,,,,,,39,0,True,5.51077079773,-1.2,7.4,1,0.1,,,2016_May_04_1318,59.8462146517,Peak_procedure,002,FB,
38,0,38,0,None,,,,,,,,,0,0,0,0,,,,,,,,,39,0,True,5.72720193863,-1.2,7.4,1,0.1,,,2016_May_04_1318,59.8462146517,Peak_procedure,002,FB,
38,0,38,0,None,,,,,,,,,0,0,0,0,,,,,,,,,39,0,True,5.91232395172,-1.2,7.4,1,0.1,,,2016_May_04_1318,59.8462146517,Peak_procedure,002,FB,
38,0,38,0,None,,,,,,,,,0,0,0,0,,,,,,,,,39,0,True,6.109623909,-1.2,7.4,1,0.1,,,2016_May_04_1318,59.8462146517,Peak_procedure,002,FB,
38,0,38,0,None,,,,,,,,,0,0,0,0,,,,,,,,,39,0,True,6.36182785034,-1.2,7.4,1,0.1,,,2016_May_04_1318,59.8462146517,Peak_procedure,002,FB,
38,0,38,0,None,,,,,,,,,0,0,0,0,,,,,,,,,39,0,True,8.26416301727,-1.2,7.4,1,0.1,,,2016_May_04_1318,59.8462146517,Peak_procedure,002,FB,
38,0,38,0,None,,,,,,,,,0,0,0,0,,,,,,,,,,,,,,,,,,,2016_May_04_1318,59.8462146517,Peak_procedure,002,FB,
38,0,38,0,None,,,,,,,,,,,,,,,,,,,,,,,,,,,,,,,2016_May_04_1318,59.8462146517,Peak_procedure,002,FB,
39,0,39,0,None,0,0,0,0,,,,,,,,,,,,,,,['space'],[3.279801845550537],,,,,,,,,,,2016_May_04_1318,59.8462146517,Peak_procedure,002,FB,
39,0,39,0,None,,,,,,,,,0,0,0,0,,,,,,,,,40,1,False,3.27980184555,1,8.4,1,0.1,,,2016_May_04_1318,59.8462146517,Peak_procedure,002,FB,
39,0,39,0,None,,,,,,,,,0,0,0,0,,,,,,,,,,,,,,,,,,,2016_May_04_1318,59.8462146517,Peak_procedure,002,FB,
39,0,39,0,None,,,,,,,,,,,,,,,,,,,,,,,,,,,,,,,2016_May_04_1318,59.8462146517,Peak_procedure,002,FB,
40,0,40,0,None,0,0,0,0,,,,,,,,,,,,,,,"['space', 'space', 'space', 'space']","[0.0002570152282714844, 2.7459700107574463, 2.962829828262329, 3.146575927734375]",,,,,,,,,,,2016_May_04_1318,59.8462146517,Peak_procedure,002,FB,
40,0,40,0,None,,,,,,,,,0,0,0,0,,,,,,,,,41,1,False,0.000257015228271,0.7,9.1,1,0.1,,,2016_May_04_1318,59.8462146517,Peak_procedure,002,FB,
40,0,40,0,None,,,,,,,,,0,0,0,0,,,,,,,,,41,1,False,2.74597001076,0.7,9.1,1,0.1,,,2016_May_04_1318,59.8462146517,Peak_procedure,002,FB,
40,0,40,0,None,,,,,,,,,0,0,0,0,,,,,,,,,41,1,False,2.96282982826,0.7,9.1,1,0.1,,,2016_May_04_1318,59.8462146517,Peak_procedure,002,FB,
40,0,40,0,None,,,,,,,,,0,0,0,0,,,,,,,,,41,1,False,3.14657592773,0.7,9.1,1,0.1,,,2016_May_04_1318,59.8462146517,Peak_procedure,002,FB,
40,0,40,0,None,,,,,,,,,0,0,0,0,,,,,,,,,,,,,,,,,,,2016_May_04_1318,59.8462146517,Peak_procedure,002,FB,
40,0,40,0,None,,,,,,,,,,,,,,,,,,,,,,,,,,,,,,,2016_May_04_1318,59.8462146517,Peak_procedure,002,FB,
41,0,41,0,None,0,0,0,0,,,,,,,,,,,,,,,"['space', 'space', 'space', 'space', 'space', 'space', 'space']","[0.00031185150146484375, 1.9445099830627441, 2.158724069595337, 2.3609910011291504, 2.578821897506714, 2.794903039932251, 3.1300299167633057]",,,,,,,,,,,2016_May_04_1318,59.8462146517,Peak_procedure,002,FB,
41,0,41,0,None,,,,,,,,,0,0,0,0,,,,,,,,,42,1,False,0.000311851501465,0.4,9.5,1,0.1,,,2016_May_04_1318,59.8462146517,Peak_procedure,002,FB,
41,0,41,0,None,,,,,,,,,0,0,0,0,,,,,,,,,42,1,False,1.94450998306,0.4,9.5,1,0.1,,,2016_May_04_1318,59.8462146517,Peak_procedure,002,FB,
41,0,41,0,None,,,,,,,,,0,0,0,0,,,,,,,,,42,1,False,2.1587240696,0.4,9.5,1,0.1,,,2016_May_04_1318,59.8462146517,Peak_procedure,002,FB,
41,0,41,0,None,,,,,,,,,0,0,0,0,,,,,,,,,42,1,False,2.36099100113,0.4,9.5,1,0.1,,,2016_May_04_1318,59.8462146517,Peak_procedure,002,FB,
41,0,41,0,None,,,,,,,,,0,0,0,0,,,,,,,,,42,1,False,2.57882189751,0.4,9.5,1,0.1,,,2016_May_04_1318,59.8462146517,Peak_procedure,002,FB,
41,0,41,0,None,,,,,,,,,0,0,0,0,,,,,,,,,42,1,False,2.79490303993,0.4,9.5,1,0.1,,,2016_May_04_1318,59.8462146517,Peak_procedure,002,FB,
41,0,41,0,None,,,,,,,,,0,0,0,0,,,,,,,,,42,1,False,3.13002991676,0.4,9.5,1,0.1,,,2016_May_04_1318,59.8462146517,Peak_procedure,002,FB,
41,0,41,0,None,,,,,,,,,0,0,0,0,,,,,,,,,,,,,,,,,,,2016_May_04_1318,59.8462146517,Peak_procedure,002,FB,
41,0,41,0,None,,,,,,,,,,,,,,,,,,,,,,,,,,,,,,,2016_May_04_1318,59.8462146517,Peak_procedure,002,FB,
42,0,42,0,None,0,0,0,0,,,,,,,,,,,,,,,"['space', 'space', 'space']","[0.00023603439331054688, 2.885673999786377, 3.0883939266204834]",,,,,,,,,,,2016_May_04_1318,59.8462146517,Peak_procedure,002,FB,
42,0,42,0,None,,,,,,,,,0,0,0,0,,,,,,,,,43,1,False,0.000236034393311,0.8,10.3,1,0.1,,,2016_May_04_1318,59.8462146517,Peak_procedure,002,FB,
42,0,42,0,None,,,,,,,,,0,0,0,0,,,,,,,,,43,1,False,2.88567399979,0.8,10.3,1,0.1,,,2016_May_04_1318,59.8462146517,Peak_procedure,002,FB,
42,0,42,0,None,,,,,,,,,0,0,0,0,,,,,,,,,43,1,False,3.08839392662,0.8,10.3,1,0.1,,,2016_May_04_1318,59.8462146517,Peak_procedure,002,FB,
42,0,42,0,None,,,,,,,,,0,0,0,0,,,,,,,,,,,,,,,,,,,2016_May_04_1318,59.8462146517,Peak_procedure,002,FB,
42,0,42,0,None,,,,,,,,,,,,,,,,,,,,,,,,,,,,,,,2016_May_04_1318,59.8462146517,Peak_procedure,002,FB,
43,0,43,0,None,0,0,0,0,,,,,,,,,,,,,,,"['space', 'space', 'space', 'space', 'space', 'space', 'space', 'space']","[0.0002551078796386719, 2.1393110752105713, 2.3737940788269043, 2.5407679080963135, 2.723381996154785, 2.9246890544891357, 3.1086490154266357]",,,,,,,,,,,2016_May_04_1318,59.8462146517,Peak_procedure,002,FB,
43,0,43,0,None,,,,,,,,,0,0,0,0,,,,,,,,,44,1,False,0.000255107879639,0.4,10.7,1,0.1,,,2016_May_04_1318,59.8462146517,Peak_procedure,002,FB,
43,0,43,0,None,,,,,,,,,0,0,0,0,,,,,,,,,44,1,False,2.13931107521,0.4,10.7,1,0.1,,,2016_May_04_1318,59.8462146517,Peak_procedure,002,FB,
43,0,43,0,None,,,,,,,,,0,0,0,0,,,,,,,,,44,1,False,2.37379407883,0.4,10.7,1,0.1,,,2016_May_04_1318,59.8462146517,Peak_procedure,002,FB,
43,0,43,0,None,,,,,,,,,0,0,0,0,,,,,,,,,44,1,False,2.5407679081,0.4,10.7,1,0.1,,,2016_May_04_1318,59.8462146517,Peak_procedure,002,FB,
43,0,43,0,None,,,,,,,,,0,0,0,0,,,,,,,,,44,1,False,2.72338199615,0.4,10.7,1,0.1,,,2016_May_04_1318,59.8462146517,Peak_procedure,002,FB,
43,0,43,0,None,,,,,,,,,0,0,0,0,,,,,,,,,44,1,False,2.92468905449,0.4,10.7,1,0.1,,,2016_May_04_1318,59.8462146517,Peak_procedure,002,FB,
43,0,43,0,None,,,,,,,,,0,0,0,0,,,,,,,,,44,1,False,3.10864901543,0.4,10.7,1,0.1,,,2016_May_04_1318,59.8462146517,Peak_procedure,002,FB,
43,0,43,0,None,,,,,,,,,0,0,0,0,,,,,,,,,,,,,,,,,,,2016_May_04_1318,59.8462146517,Peak_procedure,002,FB,
43,0,43,0,None,,,,,,,,,,,,,,,,,,,,,,,,,,,,,,,2016_May_04_1318,59.8462146517,Peak_procedure,002,FB,
44,0,44,0,None,,,,,0,0,0,0,,,,,,,,,,,,,,,,,,,,,"['space', 'space', 'space', 'space', 'space', 'space', 'space', 'space', 'space', 'space', 'space', 'space', 'space', 'space', 'space']","[0.0002779960632324219, 3.0114939212799072, 3.1942179203033447, 3.4120500087738037, 3.6292009353637695, 3.8118629455566406, 4.029982089996338, 4.2298901081085205, 4.447535037994385, 4.6314239501953125, 4.848805904388428, 5.165862083435059, 7.102195978164673, 7.2863929271698, 7.486479043960571]",2016_May_04_1318,59.8462146517,Peak_procedure,002,FB,
44,0,44,0,None,,,,,,,,,0,0,0,0,,,,,,,,,45,0,True,0.000277996063232,-1.5,9.2,1,0.1,,,2016_May_04_1318,59.8462146517,Peak_procedure,002,FB,
44,0,44,0,None,,,,,,,,,0,0,0,0,,,,,,,,,45,0,True,3.01149392128,-1.5,9.2,1,0.1,,,2016_May_04_1318,59.8462146517,Peak_procedure,002,FB,
44,0,44,0,None,,,,,,,,,0,0,0,0,,,,,,,,,45,0,True,3.1942179203,-1.5,9.2,1,0.1,,,2016_May_04_1318,59.8462146517,Peak_procedure,002,FB,
44,0,44,0,None,,,,,,,,,0,0,0,0,,,,,,,,,45,0,True,3.41205000877,-1.5,9.2,1,0.1,,,2016_May_04_1318,59.8462146517,Peak_procedure,002,FB,
44,0,44,0,None,,,,,,,,,0,0,0,0,,,,,,,,,45,0,True,3.62920093536,-1.5,9.2,1,0.1,,,2016_May_04_1318,59.8462146517,Peak_procedure,002,FB,
44,0,44,0,None,,,,,,,,,0,0,0,0,,,,,,,,,45,0,True,3.81186294556,-1.5,9.2,1,0.1,,,2016_May_04_1318,59.8462146517,Peak_procedure,002,FB,
44,0,44,0,None,,,,,,,,,0,0,0,0,,,,,,,,,45,0,True,4.02998209,-1.5,9.2,1,0.1,,,2016_May_04_1318,59.8462146517,Peak_procedure,002,FB,
44,0,44,0,None,,,,,,,,,0,0,0,0,,,,,,,,,45,0,True,4.22989010811,-1.5,9.2,1,0.1,,,2016_May_04_1318,59.8462146517,Peak_procedure,002,FB,
44,0,44,0,None,,,,,,,,,0,0,0,0,,,,,,,,,45,0,True,4.44753503799,-1.5,9.2,1,0.1,,,2016_May_04_1318,59.8462146517,Peak_procedure,002,FB,
44,0,44,0,None,,,,,,,,,0,0,0,0,,,,,,,,,45,0,True,4.6314239502,-1.5,9.2,1,0.1,,,2016_May_04_1318,59.8462146517,Peak_procedure,002,FB,
44,0,44,0,None,,,,,,,,,0,0,0,0,,,,,,,,,45,0,True,4.84880590439,-1.5,9.2,1,0.1,,,2016_May_04_1318,59.8462146517,Peak_procedure,002,FB,
44,0,44,0,None,,,,,,,,,0,0,0,0,,,,,,,,,45,0,True,5.16586208344,-1.5,9.2,1,0.1,,,2016_May_04_1318,59.8462146517,Peak_procedure,002,FB,
44,0,44,0,None,,,,,,,,,0,0,0,0,,,,,,,,,45,0,True,7.10219597816,-1.5,9.2,1,0.1,,,2016_May_04_1318,59.8462146517,Peak_procedure,002,FB,
44,0,44,0,None,,,,,,,,,0,0,0,0,,,,,,,,,45,0,True,7.28639292717,-1.5,9.2,1,0.1,,,2016_May_04_1318,59.8462146517,Peak_procedure,002,FB,
44,0,44,0,None,,,,,,,,,0,0,0,0,,,,,,,,,45,0,True,7.48647904396,-1.5,9.2,1,0.1,,,2016_May_04_1318,59.8462146517,Peak_procedure,002,FB,
44,0,44,0,None,,,,,,,,,0,0,0,0,,,,,,,,,,,,,,,,,,,2016_May_04_1318,59.8462146517,Peak_procedure,002,FB,
44,0,44,0,None,,,,,,,,,,,,,,,,,,,,,,,,,,,,,,,2016_May_04_1318,59.8462146517,Peak_procedure,002,FB,
