trials.thisRepN,trials.thisTrialN,trials.thisN,trials.thisIndex,response,response_time,ISI,interval,time,block_number,trial_number,score,correct,response.keys,response.rt,date,frameRate,expName,session,participant,
0,0,0,0,left,0.988873004913,1.39120448688,2,0.00124311447144,1,1,1,True,,,2016_Mar_15_1448,59.8379328448,switch_task,002,DMF,
0,0,0,0,,,,,,,,,,['left'],[0.9888730049133301],2016_Mar_15_1448,59.8379328448,switch_task,002,DMF,
1,0,1,0,left,0.569146156311,0.60088431267,2,4.40970897675,1,2,2,True,,,2016_Mar_15_1448,59.8379328448,switch_task,002,DMF,
1,0,1,0,,,,,,,,,,['left'],[0.5691461563110352],2016_Mar_15_1448,59.8379328448,switch_task,002,DMF,
2,0,2,0,left,0.451041936874,0.886086899102,2,8.01839208603,1,3,3,True,,,2016_Mar_15_1448,59.8379328448,switch_task,002,DMF,
2,0,2,0,,,,,,,,,,['left'],[0.45104193687438965],2016_Mar_15_1448,59.8379328448,switch_task,002,DMF,
3,0,3,0,left,0.28520989418,1.46680457117,2,11.909692049,1,4,3,False,,,2016_Mar_15_1448,59.8379328448,switch_task,002,DMF,
3,0,3,0,right,1.38895797729,1.46680457117,2,11.909692049,1,4,3,False,,,2016_Mar_15_1448,59.8379328448,switch_task,002,DMF,
3,0,3,0,,,,,,,,,,"['left', 'right']","[0.28520989418029785, 1.3889579772949219]",2016_Mar_15_1448,59.8379328448,switch_task,002,DMF,
4,0,4,0,left,0.266906023026,1.25616284737,3,16.3855099678,1,5,4,True,,,2016_Mar_15_1448,59.8379328448,switch_task,002,DMF,
4,0,4,0,right,2.87384700775,1.25616284737,3,16.3855099678,1,5,4,True,,,2016_Mar_15_1448,59.8379328448,switch_task,002,DMF,
4,0,4,0,,,,,,,,,,"['left', 'right']","[0.2669060230255127, 2.873847007751465]",2016_Mar_15_1448,59.8379328448,switch_task,002,DMF,
5,0,5,0,left,0.317440032959,0.81303240249,2,21.6467499733,1,6,5,True,,,2016_Mar_15_1448,59.8379328448,switch_task,002,DMF,
5,0,5,0,,,,,,,,,,['left'],[0.3174400329589844],2016_Mar_15_1448,59.8379328448,switch_task,002,DMF,
6,0,6,0,left,0.318423032761,1.12325955734,3,25.4714450836,1,7,6,True,,,2016_Mar_15_1448,59.8379328448,switch_task,002,DMF,
6,0,6,0,right,1.97197794914,1.12325955734,3,25.4714450836,1,7,6,True,,,2016_Mar_15_1448,59.8379328448,switch_task,002,DMF,
6,0,6,0,,,,,,,,,,"['left', 'right']","[0.3184230327606201, 1.971977949142456]",2016_Mar_15_1448,59.8379328448,switch_task,002,DMF,
7,0,7,0,left,0.318564891815,0.904948206095,3,30.5994169712,1,8,7,True,,,2016_Mar_15_1448,59.8379328448,switch_task,002,DMF,
7,0,7,0,right,2.6900138855,0.904948206095,3,30.5994169712,1,8,7,True,,,2016_Mar_15_1448,59.8379328448,switch_task,002,DMF,
7,0,7,0,,,,,,,,,,"['left', 'right']","[0.31856489181518555, 2.690013885498047]",2016_Mar_15_1448,59.8379328448,switch_task,002,DMF,
8,0,8,0,left,0.384809017181,0.572798741554,3,35.5097780228,1,9,8,True,,,2016_Mar_15_1448,59.8379328448,switch_task,002,DMF,
8,0,8,0,right,2.17198109627,0.572798741554,3,35.5097780228,1,9,8,True,,,2016_Mar_15_1448,59.8379328448,switch_task,002,DMF,
8,0,8,0,,,,,,,,,,"['left', 'right']","[0.3848090171813965, 2.1719810962677]",2016_Mar_15_1448,59.8379328448,switch_task,002,DMF,
9,0,9,0,left,0.434413909912,1.14200428626,3,40.1034710407,1,10,9,True,,,2016_Mar_15_1448,59.8379328448,switch_task,002,DMF,
9,0,9,0,right,1.88737392426,1.14200428626,3,40.1034710407,1,10,9,True,,,2016_Mar_15_1448,59.8379328448,switch_task,002,DMF,
9,0,9,0,,,,,,,,,,"['left', 'right']","[0.4344139099121094, 1.887373924255371]",2016_Mar_15_1448,59.8379328448,switch_task,002,DMF,
10,0,10,0,left,0.418585062027,0.978874836532,2,45.2640941143,1,11,10,True,,,2016_Mar_15_1448,59.8379328448,switch_task,002,DMF,
10,0,10,0,,,,,,,,,,['left'],[0.41858506202697754],2016_Mar_15_1448,59.8379328448,switch_task,002,DMF,
11,0,11,0,left,0.300734996796,1.3785144545,2,49.2560901642,1,12,11,True,,,2016_Mar_15_1448,59.8379328448,switch_task,002,DMF,
11,0,11,0,,,,,,,,,,['left'],[0.3007349967956543],2016_Mar_15_1448,59.8379328448,switch_task,002,DMF,
12,0,12,0,left,0.26736497879,1.00562295548,2,53.6485869884,1,13,12,True,,,2016_Mar_15_1448,59.8379328448,switch_task,002,DMF,
12,0,12,0,,,,,,,,,,['left'],[0.2673649787902832],2016_Mar_15_1448,59.8379328448,switch_task,002,DMF,
13,0,13,0,right,0.751858949661,0.685096179785,3,57.6742630005,1,14,13,True,,,2016_Mar_15_1448,59.8379328448,switch_task,002,DMF,
13,0,13,0,,,,,,,,,,['right'],[0.7518589496612549],2016_Mar_15_1448,59.8379328448,switch_task,002,DMF,
14,0,14,0,nan,nan,1.46298634467,3,62.3674340248,1,15,13,False,,,2016_Mar_15_1448,59.8379328448,switch_task,002,DMF,
14,0,14,0,,,,,,,,,,[nan],[nan],2016_Mar_15_1448,59.8379328448,switch_task,002,DMF,
15,0,15,0,left,0.333493947983,1.41813265841,2,67.8459320068,1,16,14,True,,,2016_Mar_15_1448,59.8379328448,switch_task,002,DMF,
15,0,15,0,,,,,,,,,,['left'],[0.3334939479827881],2016_Mar_15_1448,59.8379328448,switch_task,002,DMF,
16,0,16,0,left,0.334558963776,1.39472069962,2,72.2713770866,1,17,15,True,,,2016_Mar_15_1448,59.8379328448,switch_task,002,DMF,
16,0,16,0,,,,,,,,,,['left'],[0.33455896377563477],2016_Mar_15_1448,59.8379328448,switch_task,002,DMF,
17,0,17,0,left,0.383640050888,0.892153173273,2,76.6804540157,1,18,16,True,,,2016_Mar_15_1448,59.8379328448,switch_task,002,DMF,
17,0,17,0,,,,,,,,,,['left'],[0.3836400508880615],2016_Mar_15_1448,59.8379328448,switch_task,002,DMF,
18,0,18,0,left,1.554240942,0.901619259214,2,80.5897371769,1,19,17,True,,,2016_Mar_15_1448,59.8379328448,switch_task,002,DMF,
18,0,18,0,,,,,,,,,,['left'],[1.5542409420013428],2016_Mar_15_1448,59.8379328448,switch_task,002,DMF,
19,0,19,0,left,0.335140943527,1.28777871167,3,84.4980649948,1,20,18,True,,,2016_Mar_15_1448,59.8379328448,switch_task,002,DMF,
19,0,19,0,right,1.70410490036,1.28777871167,3,84.4980649948,1,20,18,True,,,2016_Mar_15_1448,59.8379328448,switch_task,002,DMF,
19,0,19,0,,,,,,,,,,"['left', 'right']","[0.3351409435272217, 1.7041049003601074]",2016_Mar_15_1448,59.8379328448,switch_task,002,DMF,
20,0,20,0,left,0.401687145233,0.578754874459,3,89.7927041054,1,21,19,True,,,2016_Mar_15_1448,59.8379328448,switch_task,002,DMF,
20,0,20,0,right,2.37273001671,0.578754874459,3,89.7927041054,1,21,19,True,,,2016_Mar_15_1448,59.8379328448,switch_task,002,DMF,
20,0,20,0,,,,,,,,,,"['left', 'right']","[0.4016871452331543, 2.372730016708374]",2016_Mar_15_1448,59.8379328448,switch_task,002,DMF,
21,0,21,0,left,0.61852312088,1.25676281281,3,94.3854250908,1,22,20,True,,,2016_Mar_15_1448,59.8379328448,switch_task,002,DMF,
21,0,21,0,right,2.67491912842,1.25676281281,3,94.3854250908,1,22,20,True,,,2016_Mar_15_1448,59.8379328448,switch_task,002,DMF,
21,0,21,0,,,,,,,,,,"['left', 'right']","[0.618523120880127, 2.6749191284179688]",2016_Mar_15_1448,59.8379328448,switch_task,002,DMF,
22,0,22,0,left,0.234354972839,1.48657653452,3,99.6470701694,1,23,21,True,,,2016_Mar_15_1448,59.8379328448,switch_task,002,DMF,
22,0,22,0,right,1.75431799889,1.48657653452,3,99.6470701694,1,23,21,True,,,2016_Mar_15_1448,59.8379328448,switch_task,002,DMF,
22,0,22,0,,,,,,,,,,"['left', 'right']","[0.23435497283935547, 1.7543179988861084]",2016_Mar_15_1448,59.8379328448,switch_task,002,DMF,
23,0,23,0,left,0.133852958679,0.531744107969,3,105.141621113,1,24,22,True,,,2016_Mar_15_1448,59.8379328448,switch_task,002,DMF,
23,0,23,0,right,2.67284989357,0.531744107969,3,105.141621113,1,24,22,True,,,2016_Mar_15_1448,59.8379328448,switch_task,002,DMF,
23,0,23,0,,,,,,,,,,"['left', 'right']","[0.13385295867919922, 2.6728498935699463]",2016_Mar_15_1448,59.8379328448,switch_task,002,DMF,
24,0,24,0,left,0.685286045074,1.0518051737,3,109.685076952,1,25,22,False,,,2016_Mar_15_1448,59.8379328448,switch_task,002,DMF,
24,0,24,0,,,,,,,,,,['left'],[0.6852860450744629],2016_Mar_15_1448,59.8379328448,switch_task,002,DMF,
25,0,25,0,left,0.501933813095,0.634089280361,3,114.745887041,1,26,23,True,,,2016_Mar_15_1448,59.8379328448,switch_task,002,DMF,
25,0,25,0,right,2.65610289574,0.634089280361,3,114.745887041,1,26,23,True,,,2016_Mar_15_1448,59.8379328448,switch_task,002,DMF,
25,0,25,0,,,,,,,,,,"['left', 'right']","[0.5019338130950928, 2.6561028957366943]",2016_Mar_15_1448,59.8379328448,switch_task,002,DMF,
26,0,26,0,left,1.88796401024,1.08780070288,2,119.389121056,1,27,24,True,,,2016_Mar_15_1448,59.8379328448,switch_task,002,DMF,
26,0,26,0,,,,,,,,,,['left'],[1.8879640102386475],2016_Mar_15_1448,59.8379328448,switch_task,002,DMF,
27,0,27,0,left,0.284328937531,1.26593318282,2,123.497845173,1,28,25,True,,,2016_Mar_15_1448,59.8379328448,switch_task,002,DMF,
27,0,27,0,,,,,,,,,,['left'],[0.2843289375305176],2016_Mar_15_1448,59.8379328448,switch_task,002,DMF,
28,0,28,0,left,0.367939949036,1.02988776096,2,127.773679972,1,29,26,True,,,2016_Mar_15_1448,59.8379328448,switch_task,002,DMF,
28,0,28,0,,,,,,,,,,['left'],[0.36793994903564453],2016_Mar_15_1448,59.8379328448,switch_task,002,DMF,
29,0,29,0,left,0.417627811432,1.03270251355,3,131.81561017,1,30,27,True,,,2016_Mar_15_1448,59.8379328448,switch_task,002,DMF,
29,0,29,0,right,1.92171096802,1.03270251355,3,131.81561017,1,30,27,True,,,2016_Mar_15_1448,59.8379328448,switch_task,002,DMF,
29,0,29,0,,,,,,,,,,"['left', 'right']","[0.41762781143188477, 1.9217109680175781]",2016_Mar_15_1448,59.8379328448,switch_task,002,DMF,
