trials.thisRepN,trials.thisTrialN,trials.thisN,trials.thisIndex,response,response_time,ISI,interval,time,block_number,trial_number,score,correct,response.keys,response.rt,date,frameRate,expName,session,participant,
0,0,0,0,left,0.770308017731,0.752913883909,2,0.00144600868225,1,1,1,True,,,2016_Mar_15_1453,59.8462146517,switch_task,002,FB,
0,0,0,0,,,,,,,,,,['left'],[0.7703080177307129],2016_Mar_15_1453,59.8462146517,switch_task,002,FB,
1,0,1,0,left,0.536854028702,1.31826654388,2,3.77303314209,1,2,1,False,,,2016_Mar_15_1453,59.8462146517,switch_task,002,FB,
1,0,1,0,right,1.88731002808,1.31826654388,2,3.77303314209,1,2,1,False,,,2016_Mar_15_1453,59.8462146517,switch_task,002,FB,
1,0,1,0,,,,,,,,,,"['left', 'right']","[0.5368540287017822, 1.8873100280761719]",2016_Mar_15_1453,59.8462146517,switch_task,002,FB,
2,0,2,0,left,0.751018047333,1.10520443064,2,8.0983171463,1,3,2,True,,,2016_Mar_15_1453,59.8462146517,switch_task,002,FB,
2,0,2,0,,,,,,,,,,['left'],[0.7510180473327637],2016_Mar_15_1453,59.8462146517,switch_task,002,FB,
3,0,3,0,left,0.468528032303,1.13673945305,2,12.2082941532,1,4,3,True,,,2016_Mar_15_1453,59.8462146517,switch_task,002,FB,
3,0,3,0,,,,,,,,,,['left'],[0.46852803230285645],2016_Mar_15_1453,59.8462146517,switch_task,002,FB,
4,0,4,0,left,0.250702857971,1.49168239451,3,16.3497099876,1,5,4,True,,,2016_Mar_15_1453,59.8462146517,switch_task,002,FB,
4,0,4,0,right,1.90466785431,1.49168239451,3,16.3497099876,1,5,4,True,,,2016_Mar_15_1453,59.8462146517,switch_task,002,FB,
4,0,4,0,,,,,,,,,,"['left', 'right']","[0.2507028579711914, 1.904667854309082]",2016_Mar_15_1453,59.8462146517,switch_task,002,FB,
5,0,5,0,left,0.585516929626,0.545811420268,3,21.8452119827,1,6,5,True,,,2016_Mar_15_1453,59.8462146517,switch_task,002,FB,
5,0,5,0,right,2.17162680626,0.545811420268,3,21.8452119827,1,6,5,True,,,2016_Mar_15_1453,59.8462146517,switch_task,002,FB,
5,0,5,0,,,,,,,,,,"['left', 'right']","[0.5855169296264648, 2.1716268062591553]",2016_Mar_15_1453,59.8462146517,switch_task,002,FB,
6,0,6,0,left,0.301131010056,0.921899721591,3,26.4056069851,1,7,6,True,,,2016_Mar_15_1453,59.8462146517,switch_task,002,FB,
6,0,6,0,right,1.97253704071,0.921899721591,3,26.4056069851,1,7,6,True,,,2016_Mar_15_1453,59.8462146517,switch_task,002,FB,
6,0,6,0,,,,,,,,,,"['left', 'right']","[0.301131010055542, 1.9725370407104492]",2016_Mar_15_1453,59.8462146517,switch_task,002,FB,
7,0,7,0,left,0.986735105515,0.995543588298,3,31.3322401047,1,8,7,True,,,2016_Mar_15_1453,59.8462146517,switch_task,002,FB,
7,0,7,0,right,2.87551021576,0.995543588298,3,31.3322401047,1,8,7,True,,,2016_Mar_15_1453,59.8462146517,switch_task,002,FB,
7,0,7,0,,,,,,,,,,"['left', 'right']","[0.9867351055145264, 2.8755102157592773]",2016_Mar_15_1453,59.8462146517,switch_task,002,FB,
8,0,8,0,left,0.935663938522,0.95361803696,3,36.3433861732,1,9,7,False,,,2016_Mar_15_1453,59.8462146517,switch_task,002,FB,
8,0,8,0,,,,,,,,,,['left'],[0.9356639385223389],2016_Mar_15_1453,59.8462146517,switch_task,002,FB,
9,0,9,0,left,0.534759998322,1.21037669187,2,41.3030650616,1,10,8,True,,,2016_Mar_15_1453,59.8462146517,switch_task,002,FB,
9,0,9,0,,,,,,,,,,['left'],[0.5347599983215332],2016_Mar_15_1453,59.8462146517,switch_task,002,FB,
10,0,10,0,left,0.518321990967,0.533636093931,3,45.5296680927,1,11,9,True,,,2016_Mar_15_1453,59.8462146517,switch_task,002,FB,
10,0,10,0,right,2.00482296944,0.533636093931,3,45.5296680927,1,11,9,True,,,2016_Mar_15_1453,59.8462146517,switch_task,002,FB,
10,0,10,0,,,,,,,,,,"['left', 'right']","[0.5183219909667969, 2.0048229694366455]",2016_Mar_15_1453,59.8462146517,switch_task,002,FB,
11,0,11,0,left,1.06910991669,0.608331699998,3,50.0723061562,1,12,10,True,,,2016_Mar_15_1453,59.8462146517,switch_task,002,FB,
11,0,11,0,right,1.97222685814,0.608331699998,3,50.0723061562,1,12,10,True,,,2016_Mar_15_1453,59.8462146517,switch_task,002,FB,
11,0,11,0,,,,,,,,,,"['left', 'right']","[1.0691099166870117, 1.972226858139038]",2016_Mar_15_1453,59.8462146517,switch_task,002,FB,
12,0,12,0,left,0.201450109482,0.703487018702,2,54.6992909908,1,13,10,False,,,2016_Mar_15_1453,59.8462146517,switch_task,002,FB,
12,0,12,0,right,1.7211689949,0.703487018702,2,54.6992909908,1,13,10,False,,,2016_Mar_15_1453,59.8462146517,switch_task,002,FB,
12,0,12,0,,,,,,,,,,"['left', 'right']","[0.20145010948181152, 1.7211689949035645]",2016_Mar_15_1453,59.8462146517,switch_task,002,FB,
13,0,13,0,left,0.583690881729,0.774083083619,3,58.4228479862,1,14,11,True,,,2016_Mar_15_1453,59.8462146517,switch_task,002,FB,
13,0,13,0,right,2.27129888535,0.774083083619,3,58.4228479862,1,14,11,True,,,2016_Mar_15_1453,59.8462146517,switch_task,002,FB,
13,0,13,0,,,,,,,,,,"['left', 'right']","[0.583690881729126, 2.271298885345459]",2016_Mar_15_1453,59.8462146517,switch_task,002,FB,
14,0,14,0,left,0.384699106216,0.668281569409,3,63.2175719738,1,15,12,True,,,2016_Mar_15_1453,59.8462146517,switch_task,002,FB,
14,0,14,0,right,2.03776693344,0.668281569409,3,63.2175719738,1,15,12,True,,,2016_Mar_15_1453,59.8462146517,switch_task,002,FB,
14,0,14,0,,,,,,,,,,"['left', 'right']","[0.38469910621643066, 2.037766933441162]",2016_Mar_15_1453,59.8462146517,switch_task,002,FB,
15,0,15,0,left,0.518502950668,1.00965851164,3,67.8936929703,1,16,13,True,,,2016_Mar_15_1453,59.8462146517,switch_task,002,FB,
15,0,15,0,right,2.10538887978,1.00965851164,3,67.8936929703,1,16,13,True,,,2016_Mar_15_1453,59.8462146517,switch_task,002,FB,
15,0,15,0,,,,,,,,,,"['left', 'right']","[0.518502950668335, 2.105388879776001]",2016_Mar_15_1453,59.8462146517,switch_task,002,FB,
16,0,16,0,left,0.869919061661,1.45689860317,2,72.9214701653,1,17,14,True,,,2016_Mar_15_1453,59.8462146517,switch_task,002,FB,
16,0,16,0,,,,,,,,,,['left'],[0.8699190616607666],2016_Mar_15_1453,59.8462146517,switch_task,002,FB,
17,0,17,0,left,0.770740032196,0.639620916581,2,77.397010088,1,18,15,True,,,2016_Mar_15_1453,59.8462146517,switch_task,002,FB,
17,0,17,0,,,,,,,,,,['left'],[0.7707400321960449],2016_Mar_15_1453,59.8462146517,switch_task,002,FB,
18,0,18,0,left,0.351935863495,1.31321850747,3,81.0547881126,1,19,16,True,,,2016_Mar_15_1453,59.8462146517,switch_task,002,FB,
18,0,18,0,right,2.15631103516,1.31321850747,3,81.0547881126,1,19,16,True,,,2016_Mar_15_1453,59.8462146517,switch_task,002,FB,
18,0,18,0,,,,,,,,,,"['left', 'right']","[0.35193586349487305, 2.15631103515625]",2016_Mar_15_1453,59.8462146517,switch_task,002,FB,
19,0,19,0,left,0.401947021484,1.13430785488,2,86.3830239773,1,20,17,True,,,2016_Mar_15_1453,59.8462146517,switch_task,002,FB,
19,0,19,0,,,,,,,,,,['left'],[0.401947021484375],2016_Mar_15_1453,59.8462146517,switch_task,002,FB,
20,0,20,0,left,0.384650230408,1.37298900744,3,90.5256581306,1,21,18,True,,,2016_Mar_15_1453,59.8462146517,switch_task,002,FB,
20,0,20,0,right,2.57265210152,1.37298900744,3,90.5256581306,1,21,18,True,,,2016_Mar_15_1453,59.8462146517,switch_task,002,FB,
20,0,20,0,,,,,,,,,,"['left', 'right']","[0.38465023040771484, 2.5726521015167236]",2016_Mar_15_1453,59.8462146517,switch_task,002,FB,
21,0,21,0,left,1.58939909935,0.668911386467,3,95.9037730694,1,22,18,False,,,2016_Mar_15_1453,59.8462146517,switch_task,002,FB,
21,0,21,0,right,2.98962402344,0.668911386467,3,95.9037730694,1,22,18,False,,,2016_Mar_15_1453,59.8462146517,switch_task,002,FB,
21,0,21,0,,,,,,,,,,"['left', 'right']","[1.5893990993499756, 2.9896240234375]",2016_Mar_15_1453,59.8462146517,switch_task,002,FB,
22,0,22,0,left,0.369848012924,1.25723066802,3,100.580413103,1,23,19,True,,,2016_Mar_15_1453,59.8462146517,switch_task,002,FB,
22,0,22,0,right,1.97087907791,1.25723066802,3,100.580413103,1,23,19,True,,,2016_Mar_15_1453,59.8462146517,switch_task,002,FB,
22,0,22,0,,,,,,,,,,"['left', 'right']","[0.36984801292419434, 1.970879077911377]",2016_Mar_15_1453,59.8462146517,switch_task,002,FB,
23,0,23,0,left,0.353337049484,1.40311511123,2,105.858340025,1,24,20,True,,,2016_Mar_15_1453,59.8462146517,switch_task,002,FB,
23,0,23,0,,,,,,,,,,['left'],[0.35333704948425293],2016_Mar_15_1453,59.8462146517,switch_task,002,FB,
24,0,24,0,left,1.28658819199,1.13940448513,2,110.267273188,1,25,21,True,,,2016_Mar_15_1453,59.8462146517,switch_task,002,FB,
24,0,24,0,,,,,,,,,,['left'],[1.286588191986084],2016_Mar_15_1453,59.8462146517,switch_task,002,FB,
25,0,25,0,left,0.184249162674,1.06320227212,2,114.42595315,1,26,21,False,,,2016_Mar_15_1453,59.8462146517,switch_task,002,FB,
25,0,25,0,right,1.80431222916,1.06320227212,2,114.42595315,1,26,21,False,,,2016_Mar_15_1453,59.8462146517,switch_task,002,FB,
25,0,25,0,,,,,,,,,,"['left', 'right']","[0.1842491626739502, 1.8043122291564941]",2016_Mar_15_1453,59.8462146517,switch_task,002,FB,
26,0,26,0,nan,nan,0.633692442176,2,118.501476049,1,27,21,False,,,2016_Mar_15_1453,59.8462146517,switch_task,002,FB,
26,0,26,0,,,,,,,,,,[nan],[nan],2016_Mar_15_1453,59.8462146517,switch_task,002,FB,
27,0,27,0,left,0.384557008743,1.35053930456,2,122.143028975,1,28,22,True,,,2016_Mar_15_1453,59.8462146517,switch_task,002,FB,
27,0,27,0,,,,,,,,,,['left'],[0.38455700874328613],2016_Mar_15_1453,59.8462146517,switch_task,002,FB,
28,0,28,0,left,2.807046175,0.593657492575,3,126.502170086,1,29,22,False,,,2016_Mar_15_1453,59.8462146517,switch_task,002,FB,
28,0,28,0,,,,,,,,,,['left'],[2.8070461750030518],2016_Mar_15_1453,59.8462146517,switch_task,002,FB,
29,0,29,0,left,0.651134967804,0.748197379311,3,131.112228155,1,30,23,True,,,2016_Mar_15_1453,59.8462146517,switch_task,002,FB,
29,0,29,0,right,2.42233610153,0.748197379311,3,131.112228155,1,30,23,True,,,2016_Mar_15_1453,59.8462146517,switch_task,002,FB,
29,0,29,0,,,,,,,,,,"['left', 'right']","[0.6511349678039551, 2.4223361015319824]",2016_Mar_15_1453,59.8462146517,switch_task,002,FB,
