task_segments.thisRepN,task_segments.thisTrialN,task_segments.thisN,task_segments.thisIndex,task_segments.thisTrial,trials.thisRepN,trials.thisTrialN,trials.thisN,trials.thisIndex,trials.thisTrial,instructions_key.keys,instructions_key.rt,response,response_time,ISI,interval,time,block_number,trial_number,score,correct,p_short,v_short,c_short,v_long,c_long,response.keys,response.rt,date,frameRate,expName,session,participant,
,,,,,,,,,,space,5.12446308136,,,,,,,,,,,,,,,,,2016_Mar_16_1050,59.7868412913,switch_task,001,FB,
0,0,0,0,None,0,0,0,0,None,,,left,0.167107105255,1.22487988248,3,7.4006280899,1,1,1,True,0.5,1,0,1,0,,,2016_Mar_16_1050,59.7868412913,switch_task,001,FB,
0,0,0,0,None,0,0,0,0,None,,,right,2.22131800652,1.22487988248,3,7.4006280899,1,1,1,True,0.5,1,0,1,0,,,2016_Mar_16_1050,59.7868412913,switch_task,001,FB,
0,0,0,0,None,0,0,0,0,None,,,,,,,,,,,,,,,,,"['left', 'right']","[0.16710710525512695, 2.221318006515503]",2016_Mar_16_1050,59.7868412913,switch_task,001,FB,
0,0,0,0,None,1,0,1,0,None,,,left,0.585822105408,1.00234382414,2,14.1215751171,1,2,2,True,0.5,1,0,1,0,,,2016_Mar_16_1050,59.7868412913,switch_task,001,FB,
0,0,0,0,None,1,0,1,0,None,,,,,,,,,,,,,,,,,['left'],[0.5858221054077148],2016_Mar_16_1050,59.7868412913,switch_task,001,FB,
0,0,0,0,None,2,0,2,0,None,,,left,0.201238870621,1.33563684387,3,19.5401289463,1,3,3,True,0.5,1,0,1,0,,,2016_Mar_16_1050,59.7868412913,switch_task,001,FB,
0,0,0,0,None,2,0,2,0,None,,,right,2.57344508171,1.33563684387,3,19.5401289463,1,3,3,True,0.5,1,0,1,0,,,2016_Mar_16_1050,59.7868412913,switch_task,001,FB,
0,0,0,0,None,2,0,2,0,None,,,,,,,,,,,,,,,,,"['left', 'right']","[0.20123887062072754, 2.5734450817108154]",2016_Mar_16_1050,59.7868412913,switch_task,001,FB,
0,0,0,0,None,3,0,3,0,None,,,left,0.0844101905823,1.21612274466,3,26.3165581226,1,4,4,True,0.5,1,0,1,0,,,2016_Mar_16_1050,59.7868412913,switch_task,001,FB,
0,0,0,0,None,3,0,3,0,None,,,right,2.35613512993,1.21612274466,3,26.3165581226,1,4,4,True,0.5,1,0,1,0,,,2016_Mar_16_1050,59.7868412913,switch_task,001,FB,
0,0,0,0,None,3,0,3,0,None,,,,,,,,,,,,,,,,,"['left', 'right']","[0.08441019058227539, 2.356135129928589]",2016_Mar_16_1050,59.7868412913,switch_task,001,FB,
0,0,0,0,None,4,0,4,0,None,,,left,0.7865691185,0.548519420746,3,32.959097147,1,5,5,True,0.5,1,0,1,0,,,2016_Mar_16_1050,59.7868412913,switch_task,001,FB,
0,0,0,0,None,4,0,4,0,None,,,right,2.77385497093,0.548519420746,3,32.959097147,1,5,5,True,0.5,1,0,1,0,,,2016_Mar_16_1050,59.7868412913,switch_task,001,FB,
0,0,0,0,None,4,0,4,0,None,,,,,,,,,,,,,,,,,"['left', 'right']","[0.7865691184997559, 2.773854970932007]",2016_Mar_16_1050,59.7868412913,switch_task,001,FB,
0,0,0,0,None,5,0,5,0,None,,,left,0.869605064392,0.656603772021,3,38.9326541424,1,6,5,True,0.5,1,0,1,0,,,2016_Mar_16_1050,59.7868412913,switch_task,001,FB,
0,0,0,0,None,5,0,5,0,None,,,,,,,,,,,,,,,,,['left'],[0.8696050643920898],2016_Mar_16_1050,59.7868412913,switch_task,001,FB,
0,0,0,0,None,6,0,6,0,None,,,left,0.75195479393,0.528396860019,2,45.0186750889,1,7,6,True,0.5,1,0,1,0,,,2016_Mar_16_1050,59.7868412913,switch_task,001,FB,
0,0,0,0,None,6,0,6,0,None,,,,,,,,,,,,,,,,,['left'],[0.7519547939300537],2016_Mar_16_1050,59.7868412913,switch_task,001,FB,
0,0,0,0,None,7,0,7,0,None,,,left,0.168256044388,1.13131440597,2,49.9826900959,1,8,7,True,0.5,1,0,1,0,,,2016_Mar_16_1050,59.7868412913,switch_task,001,FB,
0,0,0,0,None,7,0,7,0,None,,,,,,,,,,,,,,,,,['left'],[0.16825604438781738],2016_Mar_16_1050,59.7868412913,switch_task,001,FB,
0,0,0,0,None,8,0,8,0,None,,,left,0.568567037582,0.821318723957,3,55.5050821304,1,9,8,True,0.5,1,0,1,0,,,2016_Mar_16_1050,59.7868412913,switch_task,001,FB,
0,0,0,0,None,8,0,8,0,None,,,right,2.4726319313,0.821318723957,3,55.5050821304,1,9,8,True,0.5,1,0,1,0,,,2016_Mar_16_1050,59.7868412913,switch_task,001,FB,
0,0,0,0,None,8,0,8,0,None,,,,,,,,,,,,,,,,,"['left', 'right']","[0.5685670375823975, 2.4726319313049316]",2016_Mar_16_1050,59.7868412913,switch_task,001,FB,
0,0,0,0,None,9,0,9,0,None,,,left,0.586730957031,0.995172512926,3,61.808866024,1,10,9,True,0.5,1,0,1,0,,,2016_Mar_16_1050,59.7868412913,switch_task,001,FB,
0,0,0,0,None,9,0,9,0,None,,,right,1.97104001045,0.995172512926,3,61.808866024,1,10,9,True,0.5,1,0,1,0,,,2016_Mar_16_1050,59.7868412913,switch_task,001,FB,
0,0,0,0,None,9,0,9,0,None,,,,,,,,,,,,,,,,,"['left', 'right']","[0.58673095703125, 1.9710400104522705]",2016_Mar_16_1050,59.7868412913,switch_task,001,FB,
0,0,0,0,None,10,0,10,0,None,,,left,0.468537807465,1.14042287976,3,68.2095019817,1,11,10,True,0.5,1,0,1,0,,,2016_Mar_16_1050,59.7868412913,switch_task,001,FB,
0,0,0,0,None,10,0,10,0,None,,,right,1.87280392647,1.14042287976,3,68.2095019817,1,11,10,True,0.5,1,0,1,0,,,2016_Mar_16_1050,59.7868412913,switch_task,001,FB,
0,0,0,0,None,10,0,10,0,None,,,,,,,,,,,,,,,,,"['left', 'right']","[0.4685378074645996, 1.8728039264678955]",2016_Mar_16_1050,59.7868412913,switch_task,001,FB,
0,0,0,0,None,11,0,11,0,None,,,left,1.73822808266,0.625722100472,3,74.7566721439,1,12,10,True,0.5,1,0,1,0,,,2016_Mar_16_1050,59.7868412913,switch_task,001,FB,
0,0,0,0,None,11,0,11,0,None,,,,,,,,,,,,,,,,,['left'],[1.7382280826568604],2016_Mar_16_1050,59.7868412913,switch_task,001,FB,
0,0,0,0,None,12,0,12,0,None,,,left,0.319805860519,1.18370311205,2,80.7962090969,1,13,11,True,0.5,1,0,1,0,,,2016_Mar_16_1050,59.7868412913,switch_task,001,FB,
0,0,0,0,None,12,0,12,0,None,,,,,,,,,,,,,,,,,['left'],[0.3198058605194092],2016_Mar_16_1050,59.7868412913,switch_task,001,FB,
0,0,0,0,None,13,0,13,0,None,,,left,0.737388849258,0.85343915491,3,86.3633210659,1,14,12,True,0.5,1,0,1,0,,,2016_Mar_16_1050,59.7868412913,switch_task,001,FB,
0,0,0,0,None,13,0,13,0,None,,,right,2.77412080765,0.85343915491,3,86.3633210659,1,14,12,True,0.5,1,0,1,0,,,2016_Mar_16_1050,59.7868412913,switch_task,001,FB,
0,0,0,0,None,13,0,13,0,None,,,,,,,,,,,,,,,,,"['left', 'right']","[0.7373888492584229, 2.774120807647705]",2016_Mar_16_1050,59.7868412913,switch_task,001,FB,
0,0,0,0,None,14,0,14,0,None,,,left,0.669542074203,0.877082691593,3,92.5923080444,1,15,13,True,0.5,1,0,1,0,,,2016_Mar_16_1050,59.7868412913,switch_task,001,FB,
0,0,0,0,None,14,0,14,0,None,,,right,2.58908200264,0.877082691593,3,92.5923080444,1,15,13,True,0.5,1,0,1,0,,,2016_Mar_16_1050,59.7868412913,switch_task,001,FB,
0,0,0,0,None,14,0,14,0,None,,,,,,,,,,,,,,,,,"['left', 'right']","[0.6695420742034912, 2.5890820026397705]",2016_Mar_16_1050,59.7868412913,switch_task,001,FB,
0,0,0,0,None,15,0,15,0,None,,,left,0.386666059494,0.526857052639,2,98.912364006,1,16,14,True,0.5,1,0,1,0,,,2016_Mar_16_1050,59.7868412913,switch_task,001,FB,
0,0,0,0,None,15,0,15,0,None,,,,,,,,,,,,,,,,,['left'],[0.38666605949401855],2016_Mar_16_1050,59.7868412913,switch_task,001,FB,
0,0,0,0,None,16,0,16,0,None,,,left,0.302990913391,0.737171745647,2,103.849755049,1,17,15,True,0.5,1,0,1,0,,,2016_Mar_16_1050,59.7868412913,switch_task,001,FB,
0,0,0,0,None,16,0,16,0,None,,,,,,,,,,,,,,,,,['left'],[0.3029909133911133],2016_Mar_16_1050,59.7868412913,switch_task,001,FB,
0,0,0,0,None,17,0,17,0,None,,,left,0.785185098648,0.704293425583,3,108.991709948,1,18,16,True,0.5,1,0,1,0,,,2016_Mar_16_1050,59.7868412913,switch_task,001,FB,
0,0,0,0,None,17,0,17,0,None,,,right,2.4746389389,0.704293425583,3,108.991709948,1,18,16,True,0.5,1,0,1,0,,,2016_Mar_16_1050,59.7868412913,switch_task,001,FB,
0,0,0,0,None,17,0,17,0,None,,,,,,,,,,,,,,,,,"['left', 'right']","[0.7851850986480713, 2.4746389389038086]",2016_Mar_16_1050,59.7868412913,switch_task,001,FB,
0,0,0,0,None,18,0,18,0,None,,,left,0.585997104645,1.01955739031,3,115.08596015,1,19,17,True,0.5,1,0,1,0,,,2016_Mar_16_1050,59.7868412913,switch_task,001,FB,
0,0,0,0,None,18,0,18,0,None,,,right,2.15512609482,1.01955739031,3,115.08596015,1,19,17,True,0.5,1,0,1,0,,,2016_Mar_16_1050,59.7868412913,switch_task,001,FB,
0,0,0,0,None,18,0,18,0,None,,,,,,,,,,,,,,,,,"['left', 'right']","[0.5859971046447754, 2.1551260948181152]",2016_Mar_16_1050,59.7868412913,switch_task,001,FB,
0,0,0,0,None,19,0,19,0,None,,,left,0.217242956161,0.890872314621,3,121.474259138,1,20,18,True,0.5,1,0,1,0,,,2016_Mar_16_1050,59.7868412913,switch_task,001,FB,
0,0,0,0,None,19,0,19,0,None,,,right,2.59123182297,0.890872314621,3,121.474259138,1,20,18,True,0.5,1,0,1,0,,,2016_Mar_16_1050,59.7868412913,switch_task,001,FB,
0,0,0,0,None,19,0,19,0,None,,,,,,,,,,,,,,,,,"['left', 'right']","[0.21724295616149902, 2.5912318229675293]",2016_Mar_16_1050,59.7868412913,switch_task,001,FB,
0,0,0,0,None,20,0,20,0,None,,,left,0.636654853821,1.17639341475,2,127.77917695,1,21,19,True,0.5,1,0,1,0,,,2016_Mar_16_1050,59.7868412913,switch_task,001,FB,
0,0,0,0,None,20,0,20,0,None,,,,,,,,,,,,,,,,,['left'],[0.6366548538208008],2016_Mar_16_1050,59.7868412913,switch_task,001,FB,
0,0,0,0,None,21,0,21,0,None,,,left,0.236143112183,1.47356766129,3,133.345967054,1,22,20,True,0.5,1,0,1,0,,,2016_Mar_16_1050,59.7868412913,switch_task,001,FB,
0,0,0,0,None,21,0,21,0,None,,,right,2.18850898743,1.47356766129,3,133.345967054,1,22,20,True,0.5,1,0,1,0,,,2016_Mar_16_1050,59.7868412913,switch_task,001,FB,
0,0,0,0,None,21,0,21,0,None,,,,,,,,,,,,,,,,,"['left', 'right']","[0.2361431121826172, 2.188508987426758]",2016_Mar_16_1050,59.7868412913,switch_task,001,FB,
0,0,0,0,None,22,0,22,0,None,,,left,0.770629167557,0.965320684904,2,140.167997122,1,23,21,True,0.5,1,0,1,0,,,2016_Mar_16_1050,59.7868412913,switch_task,001,FB,
0,0,0,0,None,22,0,22,0,None,,,,,,,,,,,,,,,,,['left'],[0.7706291675567627],2016_Mar_16_1050,59.7868412913,switch_task,001,FB,
0,0,0,0,None,23,0,23,0,None,,,left,0.470304965973,1.17025223766,3,145.541301012,1,24,22,True,0.5,1,0,1,0,,,2016_Mar_16_1050,59.7868412913,switch_task,001,FB,
0,0,0,0,None,23,0,23,0,None,,,right,2.44116091728,1.17025223766,3,145.541301012,1,24,22,True,0.5,1,0,1,0,,,2016_Mar_16_1050,59.7868412913,switch_task,001,FB,
0,0,0,0,None,23,0,23,0,None,,,,,,,,,,,,,,,,,"['left', 'right']","[0.4703049659729004, 2.4411609172821045]",2016_Mar_16_1050,59.7868412913,switch_task,001,FB,
0,0,0,0,None,24,0,24,0,None,,,left,0.818689107895,0.681122159554,3,152.106920958,1,25,23,True,0.5,1,0,1,0,,,2016_Mar_16_1050,59.7868412913,switch_task,001,FB,
0,0,0,0,None,24,0,24,0,None,,,left,1.22195601463,0.681122159554,3,152.106920958,1,25,23,True,0.5,1,0,1,0,,,2016_Mar_16_1050,59.7868412913,switch_task,001,FB,
0,0,0,0,None,24,0,24,0,None,,,right,2.6069560051,0.681122159554,3,152.106920958,1,25,23,True,0.5,1,0,1,0,,,2016_Mar_16_1050,59.7868412913,switch_task,001,FB,
0,0,0,0,None,24,0,24,0,None,,,,,,,,,,,,,,,,,"['left', 'left', 'right']","[0.8186891078948975, 1.2219560146331787, 2.6069560050964355]",2016_Mar_16_1050,59.7868412913,switch_task,001,FB,
0,0,0,0,None,25,0,25,0,None,,,nan,nan,0.565929613575,2,158.158267021,1,26,23,False,0.5,1,0,1,0,,,2016_Mar_16_1050,59.7868412913,switch_task,001,FB,
0,0,0,0,None,25,0,25,0,None,,,,,,,,,,,,,,,,,[nan],[nan],2016_Mar_16_1050,59.7868412913,switch_task,001,FB,
0,0,0,0,None,26,0,26,0,None,,,left,1.65401601791,0.523478071833,3,163.226146936,1,27,23,True,0.5,1,0,1,0,,,2016_Mar_16_1050,59.7868412913,switch_task,001,FB,
0,0,0,0,None,26,0,26,0,None,,,,,,,,,,,,,,,,,['left'],[1.6540160179138184],2016_Mar_16_1050,59.7868412913,switch_task,001,FB,
0,0,0,0,None,27,0,27,0,None,,,left,0.236570119858,1.45886245402,3,169.196711063,1,28,24,True,0.5,1,0,1,0,,,2016_Mar_16_1050,59.7868412913,switch_task,001,FB,
0,0,0,0,None,27,0,27,0,None,,,right,2.3555700779,1.45886245402,3,169.196711063,1,28,24,True,0.5,1,0,1,0,,,2016_Mar_16_1050,59.7868412913,switch_task,001,FB,
0,0,0,0,None,27,0,27,0,None,,,,,,,,,,,,,,,,,"['left', 'right']","[0.23657011985778809, 2.355570077896118]",2016_Mar_16_1050,59.7868412913,switch_task,001,FB,
0,0,0,0,None,28,0,28,0,None,,,left,0.502081871033,1.19747884358,2,176.073194981,1,29,25,True,0.5,1,0,1,0,,,2016_Mar_16_1050,59.7868412913,switch_task,001,FB,
0,0,0,0,None,28,0,28,0,None,,,,,,,,,,,,,,,,,['left'],[0.5020818710327148],2016_Mar_16_1050,59.7868412913,switch_task,001,FB,
0,0,0,0,None,29,0,29,0,None,,,left,0.303275108337,0.853654932271,3,181.672640085,1,30,26,True,0.5,1,0,1,0,,,2016_Mar_16_1050,59.7868412913,switch_task,001,FB,
0,0,0,0,None,29,0,29,0,None,,,right,2.09040999413,0.853654932271,3,181.672640085,1,30,26,True,0.5,1,0,1,0,,,2016_Mar_16_1050,59.7868412913,switch_task,001,FB,
0,0,0,0,None,29,0,29,0,None,,,,,,,,,,,,,,,,,"['left', 'right']","[0.30327510833740234, 2.090409994125366]",2016_Mar_16_1050,59.7868412913,switch_task,001,FB,
0,0,0,0,None,30,0,30,0,None,,,left,0.333697080612,1.142566334,3,187.910728931,1,31,27,True,0.5,1,0,1,0,,,2016_Mar_16_1050,59.7868412913,switch_task,001,FB,
0,0,0,0,None,30,0,30,0,None,,,right,2.17097592354,1.142566334,3,187.910728931,1,31,27,True,0.5,1,0,1,0,,,2016_Mar_16_1050,59.7868412913,switch_task,001,FB,
0,0,0,0,None,30,0,30,0,None,,,,,,,,,,,,,,,,,"['left', 'right']","[0.3336970806121826, 2.170975923538208]",2016_Mar_16_1050,59.7868412913,switch_task,001,FB,
0,0,0,0,None,31,0,31,0,None,,,left,1.13772797585,0.585483560845,3,194.420593023,1,32,28,True,0.5,1,0,1,0,,,2016_Mar_16_1050,59.7868412913,switch_task,001,FB,
0,0,0,0,None,31,0,31,0,None,,,right,2.72377586365,0.585483560845,3,194.420593023,1,32,28,True,0.5,1,0,1,0,,,2016_Mar_16_1050,59.7868412913,switch_task,001,FB,
0,0,0,0,None,31,0,31,0,None,,,,,,,,,,,,,,,,,"['left', 'right']","[1.137727975845337, 2.723775863647461]",2016_Mar_16_1050,59.7868412913,switch_task,001,FB,
0,0,0,0,None,32,0,32,0,None,,,left,0.535485029221,1.32362944983,3,200.403097153,1,33,29,True,0.5,1,0,1,0,,,2016_Mar_16_1050,59.7868412913,switch_task,001,FB,
0,0,0,0,None,32,0,32,0,None,,,right,2.85874199867,1.32362944983,3,200.403097153,1,33,29,True,0.5,1,0,1,0,,,2016_Mar_16_1050,59.7868412913,switch_task,001,FB,
0,0,0,0,None,32,0,32,0,None,,,,,,,,,,,,,,,,,"['left', 'right']","[0.535485029220581, 2.8587419986724854]",2016_Mar_16_1050,59.7868412913,switch_task,001,FB,
0,0,0,0,None,33,0,33,0,None,,,left,1.77195000648,0.788540134934,3,207.105420113,1,34,29,True,0.5,1,0,1,0,,,2016_Mar_16_1050,59.7868412913,switch_task,001,FB,
0,0,0,0,None,33,0,33,0,None,,,,,,,,,,,,,,,,,['left'],[1.7719500064849854],2016_Mar_16_1050,59.7868412913,switch_task,001,FB,
0,0,0,0,None,34,0,34,0,None,,,left,0.887784957886,0.554972164941,2,213.302569151,1,35,30,True,0.5,1,0,1,0,,,2016_Mar_16_1050,59.7868412913,switch_task,001,FB,
0,0,0,0,None,34,0,34,0,None,,,,,,,,,,,,,,,,,['left'],[0.8877849578857422],2016_Mar_16_1050,59.7868412913,switch_task,001,FB,
